Time_s,Temperature_C,Humidity_%,Pressure_hPa,Lat,Lng,Alt_m,Fix,Sats,AccelX_g,AccelY_g,AccelZ_g,GyroX_deg_s,GyroY_deg_s,GyroZ_deg_s,TotalAccel,FlightStarted,ParachuteState,VideoSegment
2.317,22.70,71.79,1004.36,0.000000,0.000000,0.00,0,1,-0.5552,-0.4343,0.2998,-14.9695,73.1603,150.5649,0.766,0,NONE,0
2.373,22.70,71.79,1004.34,0.000000,0.000000,0.00,0,1,-0.5330,-0.6035,0.1675,52.4427,28.0229,71.7176,0.822,0,NONE,0
2.454,22.67,71.69,1004.28,0.000000,0.000000,0.00,0,1,-0.7473,-0.5811,0.1365,59.1908,59.6031,-13.5878,0.956,0,NONE,0
2.508,22.67,71.69,1004.28,0.000000,0.000000,0.00,0,1,-0.7083,-0.5647,0.0930,-46.8779,27.5802,12.1374,0.911,0,NONE,0
2.573,22.69,71.55,1004.31,0.000000,0.000000,0.00,0,1,-0.5461,-0.6990,0.1331,-69.3588,-14.1450,33.9389,0.897,0,NONE,0
2.634,22.70,71.44,1004.30,0.000000,0.000000,0.00,0,1,-0.6035,-0.6863,0.0449,-47.6489,21.7176,80.9084,0.915,0,NONE,0
2.694,22.70,71.32,1004.32,0.000000,0.000000,0.00,0,1,-0.1694,-0.8196,-0.2695,-14.2214,-25.5114,24.1374,0.879,0,NONE,0
2.776,22.70,71.32,1004.32,0.000000,0.000000,0.00,0,1,-0.2959,-0.7537,-0.2747,16.7481,-22.7023,3.8321,0.855,0,NONE,0
2.865,22.71,71.26,1004.33,0.000000,0.000000,0.00,0,1,-0.5066,-0.7573,0.0127,106.5496,-56.4733,-71.3511,0.911,0,NONE,0
2.967,22.71,71.20,1004.33,0.000000,0.000000,0.00,0,1,-0.9529,-0.6074,0.2241,-60.5573,-28.5267,63.0153,1.152,0,NONE,0
3.070,22.72,71.16,1004.33,0.000000,0.000000,0.00,0,1,-0.6924,-0.7788,0.4229,1.2977,-50.7405,3.6947,1.125,0,NONE,0
3.151,22.72,71.11,1004.33,0.000000,0.000000,0.00,0,1,-0.7112,-0.5596,0.3386,-34.8550,-37.1756,21.3969,0.966,0,NONE,0
3.205,22.72,71.11,1004.33,0.000000,0.000000,0.00,0,1,-0.4822,-0.3362,0.0024,-114.7481,-16.4580,29.7710,0.588,0,NONE,0
3.256,22.71,71.05,1004.35,0.000000,0.000000,0.00,0,1,-0.0368,-0.6184,0.3154,1.3664,-73.5802,-84.9237,0.695,0,NONE,0
3.317,22.69,71.04,1004.27,0.000000,0.000000,0.00,0,1,-0.4304,-0.3657,0.4805,31.8092,-129.4886,-176.6031,0.742,0,NONE,0
3.399,22.69,71.04,1004.27,0.000000,0.000000,0.00,0,1,-0.3743,-0.5432,1.0725,-41.5267,-184.0076,-185.2977,1.259,0,NONE,0
3.495,22.72,71.06,1004.35,0.000000,0.000000,0.00,0,1,-0.0947,-0.7004,1.3625,-85.2519,-92.0687,-126.4809,1.535,0,NONE,0
3.598,22.71,71.05,1004.33,0.000000,0.000000,0.00,0,1,-0.2249,-0.6074,1.0869,-11.2748,71.1832,51.0076,1.265,0,NONE,0
3.679,22.71,71.06,1004.33,0.000000,0.000000,0.00,0,1,0.2188,-0.5295,1.0742,-62.0992,-124.3588,73.4275,1.217,0,NONE,0
3.775,22.72,71.07,1004.38,0.000000,0.000000,0.00,0,1,0.2627,-0.5583,0.7673,-19.4809,-9.7405,121.4733,0.985,0,NONE,0
3.829,22.72,71.02,1004.30,0.000000,0.000000,0.00,0,1,0.2893,-0.4915,0.5874,-66.6641,-41.0611,50.2137,0.819,0,NONE,0
3.979,22.69,70.96,1004.30,0.000000,0.000000,0.00,0,1,0.4382,-0.5249,0.6282,-44.1603,-61.3664,77.6565,0.929,0,NONE,0
4.097,22.70,70.82,1004.30,0.000000,0.000000,0.00,0,1,0.6589,-0.8237,0.4807,-44.2443,-26.3740,156.1298,1.159,0,NONE,1
4.152,22.70,70.82,1004.30,0.000000,0.000000,0.00,0,1,0.5259,-0.5779,0.1453,-110.7176,78.6260,-17.7405,0.795,0,NONE,1
4.255,22.70,70.75,1004.31,0.000000,0.000000,0.00,0,1,0.5012,-0.9358,0.6897,-11.5802,4.1832,-7.6336,1.266,0,NONE,1
4.337,22.73,70.73,1004.38,0.000000,0.000000,0.00,0,1,0.5391,-0.5942,0.5378,-52.1298,42.5496,153.3817,0.966,0,NONE,1
4.439,22.73,70.65,1004.36,0.000000,0.000000,0.00,0,1,0.6243,-0.5784,-0.1001,-71.7786,8.5038,127.0382,0.857,0,NONE,1
4.534,22.73,70.68,1004.35,0.000000,0.000000,0.00,0,1,0.9790,-0.7095,1.3555,-41.5115,67.7786,-96.7328,1.816,0,NONE,1
4.637,22.73,70.64,1004.35,0.000000,0.000000,0.00,0,1,1.7778,0.4302,0.0976,11.9466,28.3969,-57.0153,1.832,0,NONE,1
4.753,22.73,70.63,1004.34,0.000000,0.000000,0.00,0,1,1.0764,-0.7913,0.2988,5.3969,49.8244,18.8550,1.369,0,NONE,1
4.807,22.72,70.66,1004.32,0.000000,0.000000,0.00,0,1,0.8293,-0.7134,0.3193,22.5038,32.0992,3.2748,1.140,0,NONE,1
4.917,22.71,70.64,1004.29,0.000000,0.000000,0.00,0,1,0.5759,-0.0417,-0.0749,21.9237,-8.5954,77.0763,0.582,0,NONE,1
5.035,22.75,70.64,1004.34,0.000000,0.000000,0.00,0,1,0.7502,-0.8081,0.3757,16.1527,9.9084,-55.8931,1.165,0,NONE,1
5.115,22.75,70.62,1004.33,0.000000,0.000000,0.00,0,1,0.7178,-0.7681,0.3396,15.9084,-38.2901,-46.4580,1.105,0,NONE,1
5.169,22.75,70.61,1004.34,0.000000,0.000000,0.00,0,1,0.7864,-0.8140,0.3130,30.6107,-6.3969,-14.4046,1.174,0,NONE,1
5.234,22.75,70.61,1004.34,0.000000,0.000000,0.00,0,1,0.6853,-0.8025,0.3613,32.4885,29.4733,-28.2214,1.115,0,NONE,1
5.325,22.72,70.62,1004.26,0.000000,0.000000,0.00,0,1,0.7856,-0.8062,0.3640,29.0916,-38.9618,25.4046,1.183,0,NONE,1
5.380,22.76,70.65,1004.32,0.000000,0.000000,0.00,0,1,0.6782,-0.8015,0.2915,23.3435,-45.2824,22.7023,1.090,0,NONE,1
5.442,22.76,70.65,1004.32,0.000000,0.000000,0.00,0,1,0.7007,-0.8589,0.2400,64.8473,-2.0076,15.2290,1.134,0,NONE,1
5.502,22.72,70.65,1004.29,0.000000,0.000000,0.00,0,1,1.0398,-0.9924,0.0886,81.8702,-28.1145,41.4733,1.440,0,NONE,1
5.563,22.75,70.58,1004.32,0.000000,0.000000,0.00,0,1,0.5574,-0.8267,0.2380,33.9084,-22.4962,48.6183,1.025,0,NONE,1
5.621,22.75,70.58,1004.32,0.000000,0.000000,0.00,0,1,0.4763,-0.6763,0.2170,70.9924,1.4733,-21.1527,0.855,0,NONE,1
5.730,22.74,70.66,1004.32,0.000000,0.000000,0.00,0,1,0.2603,-0.7388,0.3479,148.7023,-68.1985,-98.3740,0.857,0,NONE,1
5.825,22.76,70.70,1004.33,0.000000,0.000000,0.00,0,1,-0.0087,-0.9956,0.4963,138.2290,-15.6412,-76.2977,1.113,0,NONE,1
5.907,22.75,70.68,1004.32,0.000000,0.000000,0.00,0,1,0.2112,-0.5996,0.5698,141.8702,-15.4351,-123.4657,0.854,0,NONE,1
5.988,22.76,70.73,1004.36,0.000000,0.000000,0.00,0,1,-0.4146,-0.7573,0.6619,43.3359,-50.0687,-96.7099,1.088,0,NONE,1
6.104,22.76,70.75,1004.32,0.000000,0.000000,0.00,0,1,-0.2522,-0.6104,0.9163,88.5115,5.6794,-50.1221,1.129,0,NONE,1
6.207,22.76,70.79,1004.34,0.000000,0.000000,0.00,0,1,-0.2253,-0.6575,0.8706,15.3893,-4.5344,-0.6489,1.114,0,NONE,1
6.262,22.76,70.75,1004.37,0.000000,0.000000,0.00,0,1,-0.2017,-0.5916,0.7903,48.0153,-0.6031,41.3435,1.008,0,NONE,1
6.324,22.73,70.74,1004.28,0.000000,0.000000,0.00,0,1,-0.1956,-0.4136,0.7371,-12.3359,-6.1832,35.7405,0.867,0,NONE,1
6.432,22.76,70.75,1004.36,0.000000,0.000000,0.00,0,1,0.0610,-0.6438,1.1799,-45.3664,42.2061,27.0916,1.346,0,NONE,1
6.486,22.76,70.75,1004.36,0.000000,0.000000,0.00,0,1,-0.2637,-0.3052,0.6294,7.9771,3.6412,16.4275,0.748,0,NONE,1
6.568,22.74,70.75,1004.28,0.000000,0.000000,0.00,0,1,-0.5376,-0.5930,0.7256,16.9618,11.9313,10.8092,1.080,0,NONE,1
6.664,22.77,70.71,1004.35,0.000000,0.000000,0.00,0,1,-0.4370,-0.6216,0.7207,11.9695,-9.5038,15.4809,1.047,0,NONE,1
6.719,22.77,70.69,1004.33,0.000000,0.000000,0.00,0,1,-0.4397,-0.5750,0.6282,18.0763,-0.7786,41.8168,0.958,0,NONE,1
6.781,22.77,70.69,1004.33,0.000000,0.000000,0.00,0,1,-0.4697,-0.6199,0.6790,18.2672,55.1298,77.5038,1.032,0,NONE,1
6.841,22.73,70.68,1004.29,0.000000,0.000000,0.00,0,1,-0.4595,-0.6084,0.6033,10.1450,96.8550,78.3511,0.972,0,NONE,1
6.902,22.73,70.68,1004.29,0.000000,0.000000,0.00,0,1,-0.5181,-0.5840,0.4932,43.8473,139.9160,98.9084,0.923,0,NONE,1
6.962,22.76,70.65,1004.33,0.000000,0.000000,0.00,0,1,-0.4343,-0.5710,0.4033,52.0000,149.8626,69.2290,0.823,0,NONE,1
7.022,22.75,70.67,1004.32,0.000000,0.000000,0.00,0,1,-0.6492,-0.2720,0.0405,137.0611,-32.9084,6.1145,0.705,0,NONE,2
7.175,22.76,70.66,1004.36,0.000000,0.000000,0.00,0,1,-0.8069,-0.3789,0.1699,-66.2595,-17.3588,-42.9389,0.907,0,NONE,2
7.229,22.77,70.64,1004.36,0.000000,0.000000,0.00,0,1,-0.7632,-0.0515,0.0820,-0.7939,-39.5878,-25.8702,0.769,0,NONE,2
7.325,22.74,70.64,1004.29,0.000000,0.000000,0.00,0,1,-0.8413,-0.4932,0.3557,24.7481,-36.3588,-18.6794,1.038,0,NONE,2
7.380,22.74,70.65,1004.32,0.000000,0.000000,0.00,0,1,-0.6074,-0.2385,0.3269,19.5954,-6.5115,-8.3893,0.730,0,NONE,2
7.462,22.76,70.66,1004.32,0.000000,0.000000,0.00,0,1,-0.7207,-0.2810,0.4963,15.0382,-8.3817,-4.3130,0.919,0,NONE,2
7.516,22.77,70.65,1004.35,0.000000,0.000000,0.00,0,1,-0.7888,-0.2542,0.4080,6.7481,-7.7557,1.9695,0.924,0,NONE,2
7.606,22.74,70.62,1004.28,0.000000,0.000000,0.00,0,1,-0.7400,-0.3735,0.3728,2.5038,5.0153,-0.4046,0.909,0,NONE,2
7.660,22.74,70.62,1004.28,0.000000,0.000000,0.00,0,1,-0.7627,-0.3621,0.4146,4.1756,2.5573,8.3817,0.941,0,NONE,2
7.720,22.75,70.58,1004.31,0.000000,0.000000,0.00,0,1,-0.7676,-0.3618,0.3811,4.3206,1.2824,5.0382,0.930,0,NONE,2
7.825,22.75,70.59,1004.30,0.000000,0.000000,0.00,0,1,-0.7314,-0.9373,0.4629,-38.5649,-53.6412,0.7786,1.276,0,NONE,2
7.907,22.78,70.59,1004.36,0.000000,0.000000,0.00,0,1,-0.6985,-0.3259,0.3789,9.0611,-0.3740,23.1145,0.859,0,NONE,2
7.995,22.76,70.58,1004.33,0.000000,0.000000,0.00,0,1,-0.7170,-0.3386,0.4204,-14.5802,16.5267,-22.2137,0.898,0,NONE,2
8.050,22.76,70.58,1004.33,0.000000,0.000000,0.00,0,1,-0.8025,-0.4565,0.3699,-8.5573,34.5496,-0.1679,0.995,0,NONE,2
8.139,22.76,70.53,1004.30,0.000000,0.000000,0.00,0,1,-0.7666,-0.3762,0.2546,-1.3969,60.8168,19.5038,0.891,0,NONE,2
8.194,22.77,70.53,1004.34,0.000000,0.000000,0.00,0,1,-0.7893,-0.3030,0.2551,23.2595,-5.6641,26.5420,0.883,0,NONE,2
8.256,22.77,70.53,1004.34,0.000000,0.000000,0.00,0,1,-0.7556,-0.3394,0.2229,20.5191,-7.0229,-14.6031,0.858,0,NONE,2
8.339,22.75,70.51,1004.29,0.000000,0.000000,0.00,0,1,-0.7957,-0.3582,0.2683,42.1603,15.9084,-5.1985,0.913,0,NONE,2
8.394,22.78,70.53,1004.35,0.000000,0.000000,0.00,0,1,-0.8306,-0.2910,0.2878,20.3511,4.6947,5.4275,0.926,0,NONE,2
8.449,22.78,70.53,1004.35,0.000000,0.000000,0.00,0,1,-0.8394,-0.2649,0.2983,3.0153,1.7252,-7.1679,0.929,0,NONE,2
8.510,22.75,70.46,1004.29,0.000000,0.000000,0.00,0,1,-0.7964,-0.3274,0.3689,4.2443,-9.7710,-19.2672,0.937,0,NONE,2
8.571,22.77,70.44,1004.33,0.000000,0.000000,0.00,0,1,-0.8047,-0.2410,0.2988,9.8397,-17.6641,24.0992,0.892,0,NONE,2
8.654,22.77,70.44,1004.33,0.000000,0.000000,0.00,0,1,-0.8137,-0.2646,0.3540,9.3740,-15.8931,21.6641,0.926,0,NONE,2
8.709,22.78,70.47,1004.33,0.000000,0.000000,0.00,0,1,-0.8416,-0.2810,0.3987,9.4809,-12.0076,20.1450,0.973,0,NONE,2
8.812,22.75,70.49,1004.28,0.000000,0.000000,0.00,0,1,-0.8269,-0.2678,0.3369,-8.6794,-6.0382,-9.4198,0.932,0,NONE,2
8.915,22.79,70.51,1004.32,0.000000,0.000000,0.00,0,1,-0.7632,-0.2751,0.3914,-21.5878,-41.8321,4.4351,0.901,0,NONE,2
8.970,22.78,70.53,1004.33,0.000000,0.000000,0.00,0,1,-0.7188,-0.3091,0.3879,-25.5954,-45.1832,-10.7557,0.873,0,NONE,2
9.021,22.78,70.53,1004.33,0.000000,0.000000,0.00,0,1,-0.6572,-0.2966,0.4089,-28.3282,-32.4656,-9.1374,0.829,0,NONE,2
9.082,22.75,70.49,1004.27,0.000000,0.000000,0.00,0,1,-0.6343,-0.3030,0.3716,-52.3740,-30.7176,11.3206,0.795,0,NONE,2
9.142,22.78,70.46,1004.32,0.000000,0.000000,0.00,0,1,-0.6833,-0.3926,0.2871,-62.8931,-77.8473,-9.3588,0.839,0,NONE,2
9.203,22.78,70.46,1004.32,0.000000,0.000000,0.00,0,1,-0.5564,-0.4592,0.6106,-95.2290,-226.9924,-34.1985,0.945,0,NONE,2
9.265,22.76,70.49,1004.29,0.000000,0.000000,0.00,0,1,-0.3435,-0.4287,1.0889,-27.0916,-56.1450,-17.6947,1.220,0,NONE,2
9.357,22.77,70.50,1004.33,0.000000,0.000000,0.00,0,1,-0.3103,-0.4551,0.8679,-103.0000,39.0840,17.4198,1.028,0,NONE,2
9.411,22.77,70.50,1004.33,0.000000,0.000000,0.00,0,1,-0.6111,-0.1855,0.6843,-199.2595,82.5802,-11.7863,0.936,0,NONE,2
9.462,22.77,70.49,1004.32,0.000000,0.000000,0.00,0,1,-0.1326,-0.0742,0.7144,-250.1374,65.6107,-158.1298,0.730,0,NONE,2
9.523,22.77,70.49,1004.32,0.000000,0.000000,0.00,0,1,0.1738,-0.0424,1.1575,-250.1374,70.4275,-206.9389,1.171,0,NONE,2
9.646,22.78,70.51,1004.34,0.000000,0.000000,0.00,0,1,0.1213,-0.1738,1.3923,-137.5038,153.6412,-150.6870,1.408,0,NONE,2
9.756,22.77,70.47,1004.31,0.000000,0.000000,0.00,0,1,0.0444,-0.2607,1.2920,152.8168,209.3664,-66.2824,1.319,0,NONE,2
9.837,22.78,70.40,1004.33,0.000000,0.000000,0.00,0,1,0.0908,-0.1892,1.3599,229.7176,177.7176,-38.4885,1.376,0,NONE,2
9.892,22.78,70.40,1004.33,0.000000,0.000000,0.00,0,1,0.1262,-0.1443,1.1396,250.1298,139.2519,-9.3359,1.156,0,NONE,2
9.942,22.77,70.39,1004.31,0.000000,0.000000,0.00,0,1,0.0024,-0.1255,1.1252,126.7099,-18.1298,127.6947,1.132,0,NONE,2
10.251,22.79,70.15,1004.33,0.000000,0.000000,0.00,0,1,0.0444,-0.0026,1.3933,-234.1756,-188.1832,250.1298,1.394,0,NONE,3
10.376,22.79,70.13,1004.32,0.000000,0.000000,0.00,0,1,0.0078,0.0903,0.7805,-250.1374,-171.9008,61.3053,0.786,0,NONE,3
10.430,22.79,70.08,1004.34,0.000000,0.000000,0.00,0,1,-0.1187,-0.0708,1.2053,-250.1374,-34.9924,18.7786,1.213,0,NONE,3
10.483,22.79,70.08,1004.34,0.000000,0.000000,0.00,0,1,0.1704,0.1321,0.6873,-173.9160,59.1527,-67.3130,0.720,0,NONE,3
10.544,22.76,69.99,1004.27,0.000000,0.000000,0.00,0,1,-0.0512,-0.1904,1.0601,-20.4198,135.0916,-4.7176,1.078,0,NONE,3
10.604,22.78,69.91,1004.34,0.000000,0.000000,0.00,0,1,0.0244,-0.1563,1.3115,87.3969,250.1298,17.6031,1.321,0,NONE,3
10.665,22.78,69.91,1004.34,0.000000,0.000000,0.00,0,1,0.1086,-0.1492,1.3860,173.2748,250.1298,-0.0458,1.398,0,NONE,3
10.725,22.78,69.84,1004.33,0.000000,0.000000,0.00,0,1,-0.0786,-0.0966,1.8960,202.9313,250.1298,23.0153,1.900,0,NONE,3
10.817,22.79,69.73,1004.34,0.000000,0.000000,0.00,0,1,-0.1248,-0.2488,1.9999,160.5038,250.1298,-94.6565,2.019,0,NONE,3
10.871,22.79,69.73,1004.34,0.000000,0.000000,0.00,0,1,0.0214,-0.1558,1.4456,98.8092,250.1298,-158.8092,1.454,0,NONE,3
10.925,22.78,69.66,1004.32,0.000000,0.000000,0.00,0,1,-0.0705,-0.0752,1.2083,1.2290,174.3893,-102.9771,1.213,0,NONE,3
10.986,22.78,69.66,1004.32,0.000000,0.000000,0.00,0,1,0.0620,-0.0734,1.1357,-99.2901,166.9695,-55.3511,1.140,0,NONE,3
11.109,22.78,69.57,1004.30,0.000000,0.000000,0.00,0,1,0.2131,-0.0627,0.6809,-126.6947,-21.5191,-28.6031,0.716,0,NONE,3
11.226,22.79,69.54,1004.31,0.000000,0.000000,0.00,0,1,0.0454,-0.1128,1.5530,-2.8244,-250.1374,51.7710,1.558,0,NONE,3
11.328,22.81,69.52,1004.37,0.000000,0.000000,0.00,0,1,0.0227,-0.1909,1.9999,94.3511,-250.1374,100.5115,2.009,0,NONE,3
11.383,22.81,69.55,1004.33,0.000000,0.000000,0.00,0,1,-0.2297,-0.2507,1.9999,126.7786,-250.1374,142.5420,2.029,0,NONE,3
11.436,22.81,69.55,1004.33,0.000000,0.000000,0.00,0,1,-0.1736,-0.1924,1.9999,129.0305,-250.1374,200.9924,2.017,0,NONE,3
11.558,22.78,69.42,1004.30,0.000000,0.000000,0.00,0,1,-0.0730,0.0385,1.0264,-32.6412,-194.2061,165.0763,1.030,0,NONE,3
11.613,22.82,69.45,1004.35,0.000000,0.000000,0.00,0,1,-0.1565,0.0439,0.7224,-131.1298,-104.9542,68.8931,0.740,0,NONE,3
11.667,22.82,69.45,1004.35,0.000000,0.000000,0.00,0,1,-0.0900,0.0927,0.4641,-203.3969,3.1527,1.0687,0.482,0,NONE,3
11.727,22.79,69.43,1004.29,0.000000,0.000000,0.00,0,1,-0.0986,0.0815,0.6067,-205.8015,214.2366,-69.0382,0.620,0,NONE,3
11.790,22.80,69.36,1004.30,0.000000,0.000000,0.00,0,1,0.1592,-0.1099,1.9729,-2.3206,250.1298,13.7405,1.982,0,NONE,3
11.873,22.81,69.30,1004.34,0.000000,0.000000,0.00,0,1,0.0544,-0.2021,1.9999,26.5954,250.1298,1.3969,2.011,0,NONE,3
11.989,22.79,69.23,1004.29,0.000000,0.000000,0.00,0,1,0.0468,-0.1943,1.8953,213.5267,250.1298,-75.6260,1.906,0,NONE,3
12.071,22.81,69.16,1004.32,0.000000,0.000000,0.00,0,1,0.0134,-0.1440,1.7566,204.5954,250.1298,-86.8702,1.763,0,NONE,3
12.126,22.81,69.16,1004.32,0.000000,0.000000,0.00,0,1,-0.0122,-0.1392,1.3757,129.4351,224.8931,-127.1221,1.383,0,NONE,3
12.178,22.79,69.17,1004.33,0.000000,0.000000,0.00,0,1,0.0178,-0.0695,0.9956,31.8015,166.2748,-95.4580,0.998,0,NONE,3
12.370,22.83,69.05,1004.35,0.000000,0.000000,0.00,0,1,0.0893,-0.0839,1.4756,8.9771,-250.1374,125.2366,1.481,0,NONE,3
12.452,22.82,68.99,1004.32,0.000000,0.000000,0.00,0,1,-0.0908,-0.2712,1.9999,39.7710,-250.1374,234.1298,2.020,0,NONE,3
12.533,22.82,68.99,1004.32,0.000000,0.000000,0.00,0,1,-0.1726,-0.3149,1.9999,41.0458,-250.1374,217.5496,2.032,0,NONE,3
12.588,22.82,69.03,1004.33,0.000000,0.000000,0.00,0,1,-0.7080,0.1382,1.9999,123.0076,-250.1374,238.0992,2.126,0,NONE,3
12.641,22.82,68.96,1004.24,0.000000,0.000000,0.00,0,1,-0.2134,-0.2449,1.9999,125.3588,-250.1374,250.1298,2.026,0,NONE,3
12.749,22.81,68.93,1004.28,0.000000,0.000000,0.00,0,1,0.0622,0.0185,0.9609,37.9237,-60.1908,250.1298,0.963,0,NONE,3
12.831,22.81,68.93,1004.28,0.000000,0.000000,0.00,0,1,0.0959,0.0405,0.7991,45.6031,-68.3817,250.1298,0.806,0,NONE,3
12.885,22.82,68.91,1004.27,0.000000,0.000000,0.00,0,1,0.0854,0.1731,0.2725,95.3435,-23.4427,250.1298,0.334,0,NONE,3
12.936,22.80,68.85,1004.24,0.000000,0.000000,0.00,0,1,0.0915,0.1650,-0.0585,129.9695,43.2061,179.7252,0.198,0,NONE,3
13.027,22.80,68.85,1004.24,0.000000,0.000000,0.00,0,1,0.1104,0.1160,-0.2620,148.3282,35.3206,119.6107,0.307,0,NONE,3
13.082,22.82,68.88,1004.25,0.000000,0.000000,0.00,0,1,-0.0312,0.1140,-0.1143,145.0000,128.5725,77.4657,0.164,0,NONE,4
13.133,22.80,68.79,1004.24,0.000000,0.000000,0.00,0,1,0.0007,0.0715,-0.0229,153.9695,250.1298,24.6947,0.075,0,NONE,4
13.194,22.80,68.79,1004.24,0.000000,0.000000,0.00,0,1,0.0944,0.0578,0.4473,201.0763,250.1298,-96.6336,0.461,0,NONE,4
13.254,22.82,68.74,1004.29,0.000000,0.000000,0.00,0,1,0.2183,-0.0180,0.7454,249.4504,250.1298,-250.1374,0.777,0,NONE,4
13.315,22.82,68.74,1004.29,0.000000,0.000000,0.00,0,1,-0.1653,-0.0598,1.8381,213.9771,250.1298,-250.1374,1.847,0,NONE,4
13.406,22.83,68.73,1004.28,0.000000,0.000000,0.00,0,1,-0.0708,-0.3367,1.9999,127.8779,114.9847,-250.1374,2.029,0,NONE,4
13.509,22.84,68.68,1004.33,0.000000,0.000000,0.00,0,1,-0.0781,-0.3152,1.9999,250.1298,-90.2366,-70.5802,2.026,0,NONE,4
13.604,22.84,68.63,1004.36,0.000000,0.000000,0.00,0,1,-0.0051,-0.1575,1.3525,250.1298,7.1603,52.3359,1.362,0,NONE,4
13.659,22.84,68.59,1004.34,0.000000,0.000000,0.00,0,1,-0.0422,-0.0219,1.3884,125.4504,79.3664,104.4275,1.389,0,NONE,4
13.709,22.84,68.59,1004.34,0.000000,0.000000,0.00,0,1,0.0441,-0.0495,1.2317,-42.7786,34.5725,81.6260,1.233,0,NONE,4
13.792,22.85,68.55,1004.36,0.000000,0.000000,0.00,0,1,0.0542,-0.0515,1.1443,32.0076,6.5496,51.6412,1.147,0,NONE,4
13.874,22.85,68.55,1004.36,0.000000,0.000000,0.00,0,1,0.0634,-0.0556,1.0664,40.6641,1.9924,48.3893,1.070,0,NONE,4
13.928,22.85,68.52,1004.34,0.000000,0.000000,0.00,0,1,-0.0026,-0.0654,1.0103,59.9847,18.8550,82.1603,1.012,0,NONE,4
14.052,22.82,68.51,1004.34,0.000000,0.000000,0.00,0,1,0.0327,-0.0361,0.6414,-64.3511,-15.6641,22.3435,0.643,0,NONE,4
14.154,22.85,68.50,1004.35,0.000000,0.000000,0.00,0,1,0.0632,-0.0170,0.6221,-112.3206,10.7863,-10.8092,0.626,0,NONE,4
14.264,22.86,68.48,1004.33,0.000000,0.000000,0.00,0,1,-0.0007,-0.1802,1.4626,-85.1145,13.7023,-74.2290,1.474,0,NONE,4
14.346,22.85,68.48,1004.33,0.000000,0.000000,0.00,0,1,0.2510,-0.1111,0.9680,60.6870,-26.3893,-81.9466,1.006,0,NONE,4
14.434,22.85,68.46,1004.35,0.000000,0.000000,0.00,0,1,0.2166,-0.0822,1.0078,87.0458,-55.6489,82.1298,1.034,0,NONE,4
14.515,22.85,68.45,1004.37,0.000000,0.000000,0.00,0,1,0.1606,-0.2847,0.9971,47.4351,-8.3130,102.8626,1.049,0,NONE,4
14.597,22.84,68.43,1004.33,0.000000,0.000000,0.00,0,1,0.1577,-0.4209,0.7573,71.3893,-40.5267,91.3893,0.881,0,NONE,4
14.651,22.82,68.42,1004.28,0.000000,0.000000,0.00,0,1,0.1565,-0.5210,0.7395,67.2214,-7.5420,44.1908,0.918,0,NONE,4
14.734,22.85,68.41,1004.36,0.000000,0.000000,0.00,0,1,0.0710,-0.7930,0.9954,65.8015,8.8092,45.0992,1.275,0,NONE,4
14.815,22.85,68.39,1004.33,0.000000,0.000000,0.00,0,1,0.1360,-0.6611,0.8499,63.5115,-21.7023,48.8550,1.085,0,NONE,4
14.897,22.84,68.39,1004.33,0.000000,0.000000,0.00,0,1,0.1416,-0.5464,0.8765,69.3435,-14.2824,55.2137,1.042,0,NONE,4
14.951,22.84,68.39,1004.33,0.000000,0.000000,0.00,0,1,0.1826,-0.6160,0.3516,45.5954,-6.5954,45.4427,0.732,0,NONE,4
15.016,22.83,68.35,1004.26,0.000000,0.000000,0.00,0,1,0.0881,-0.5647,0.3291,29.8015,-41.6870,62.1450,0.660,0,NONE,4
15.074,22.84,68.35,1004.31,0.000000,0.000000,0.00,0,1,0.0053,-0.5696,0.7119,59.0153,-53.1603,32.6031,0.912,0,NONE,4
15.157,22.84,68.35,1004.31,0.000000,0.000000,0.00,0,1,0.0327,-0.5471,0.6299,16.2901,-28.2214,-49.5038,0.835,0,NONE,4
15.211,22.85,68.34,1004.28,0.000000,0.000000,0.00,0,1,0.0559,-0.6602,0.7239,4.3359,-35.4504,-41.1374,0.981,0,NONE,4
15.294,22.83,68.34,1004.28,0.000000,0.000000,0.00,0,1,0.1040,-0.5461,0.7607,1.8092,-20.7252,-32.0611,0.942,0,NONE,4
15.390,22.84,68.35,1004.29,0.000000,0.000000,0.00,0,1,0.0312,-0.3953,0.7158,-29.3359,16.6794,-4.4275,0.818,0,NONE,4
15.445,22.84,68.38,1004.31,0.000000,0.000000,0.00,0,1,0.1846,-0.3772,0.8530,-86.2748,-18.1221,-59.7328,0.951,0,NONE,4
15.527,22.84,68.38,1004.31,0.000000,0.000000,0.00,0,1,0.1526,-0.3418,0.8369,-102.2672,-20.9771,-79.7481,0.917,0,NONE,4
15.615,22.86,68.27,1004.33,0.000000,0.000000,0.00,0,1,0.4600,-0.4121,1.0999,-121.1832,-13.2137,-74.1145,1.261,0,NONE,4
15.718,22.86,68.31,1004.33,0.000000,0.000000,0.00,0,1,0.4214,-0.4988,1.2419,36.8702,-4.4275,-42.5038,1.403,0,NONE,4
15.833,22.86,68.30,1004.36,0.000000,0.000000,0.00,0,1,0.4995,-0.4194,0.9143,16.5878,2.0000,-8.4427,1.123,0,NONE,4
15.888,22.86,68.35,1004.35,0.000000,0.000000,0.00,0,1,0.3425,-0.2976,0.8831,50.1221,-7.4351,43.7634,0.993,0,NONE,4
15.970,22.83,68.32,1004.26,0.000000,0.000000,0.00,0,1,0.3369,-0.2080,0.9563,18.0458,20.5038,42.4275,1.035,0,NONE,4
16.024,22.83,68.32,1004.26,0.000000,0.000000,0.00,0,1,0.3259,-0.2876,1.1394,13.1603,4.5191,38.7557,1.220,0,NONE,4
16.088,22.85,68.33,1004.29,0.000000,0.000000,0.00,0,1,0.2991,-0.3945,0.9451,18.9008,-17.7099,57.7939,1.067,0,NONE,4
16.148,22.86,68.35,1004.31,0.000000,0.000000,0.00,0,1,0.1902,-0.3977,0.7800,-10.7176,-9.6870,88.7252,0.896,0,NONE,4
16.208,22.86,68.35,1004.31,0.000000,0.000000,0.00,0,1,0.2324,-0.2693,0.7205,-110.0763,-1.8702,84.2366,0.803,0,NONE,4
16.316,22.86,68.32,1004.32,0.000000,0.000000,0.00,0,1,0.3582,-0.2678,0.7415,-112.6260,-12.0229,-87.3511,0.866,0,NONE,5
16.398,22.87,68.29,1004.33,0.000000,0.000000,0.00,0,1,0.1719,-0.1570,0.9670,123.2672,176.7557,-152.2290,0.995,0,NONE,5
16.453,22.88,68.31,1004.35,0.000000,0.000000,0.00,0,1,-0.0388,-0.2510,1.3418,162.3969,62.6031,84.3588,1.366,0,NONE,5
16.535,22.86,68.32,1004.31,0.000000,0.000000,0.00,0,1,0.0363,-0.1257,1.4983,154.7634,65.1603,110.5496,1.504,0,NONE,5
16.645,22.85,68.29,1004.29,0.000000,0.000000,0.00,0,1,-0.0571,-0.0029,0.9243,26.0611,69.5038,-72.7710,0.926,0,NONE,5
16.700,22.85,68.29,1004.31,0.000000,0.000000,0.00,0,1,-0.0427,-0.1426,1.3574,-109.9389,106.5649,-97.8702,1.366,0,NONE,5
16.782,22.86,68.26,1004.32,0.000000,0.000000,0.00,0,1,-0.0324,-0.0913,1.3088,-111.3282,117.6947,-91.0229,1.312,0,NONE,5
16.906,22.88,68.32,1004.37,0.000000,0.000000,0.00,0,1,0.0949,-0.2390,1.0979,-7.3359,64.9695,-62.0229,1.128,0,NONE,5
16.988,22.88,68.26,1004.36,0.000000,0.000000,0.00,0,1,0.1060,-0.1641,1.2339,145.2519,-28.8855,48.8015,1.249,0,NONE,5
17.105,22.89,68.32,1004.34,0.000000,0.000000,0.00,0,1,-0.0773,-0.1279,1.6538,219.9695,-90.3053,222.5267,1.661,0,NONE,5
17.186,22.87,68.24,1004.34,0.000000,0.000000,0.00,0,1,-0.1392,-0.0839,1.8889,66.5878,-54.0687,250.1298,1.896,0,NONE,5
17.289,22.89,68.30,1004.37,0.000000,0.000000,0.00,0,1,-0.0534,0.0107,1.3333,-168.7023,4.5191,250.1298,1.334,0,NONE,5
17.343,22.89,68.24,1004.32,0.000000,0.000000,0.00,0,1,0.0122,0.0617,0.9192,-236.0840,-51.1527,209.2366,0.921,0,NONE,5
17.396,22.89,68.24,1004.32,0.000000,0.000000,0.00,0,1,-0.0349,0.0456,0.8010,-245.6031,-73.9313,123.1298,0.803,0,NONE,5
17.519,22.88,68.16,1004.32,0.000000,0.000000,0.00,0,1,-0.0502,0.1533,0.5427,-165.0687,39.5649,-52.7634,0.566,0,NONE,5
17.574,22.88,68.16,1004.32,0.000000,0.000000,0.00,0,1,0.0844,-0.0278,0.8481,-73.1221,206.0687,-121.8626,0.853,0,NONE,5
17.627,22.87,68.12,1004.29,0.000000,0.000000,0.00,0,1,0.0571,-0.0883,1.2634,-6.2901,241.4962,-99.9160,1.268,0,NONE,5
17.687,22.87,68.12,1004.29,0.000000,0.000000,0.00,0,1,-0.0505,-0.2209,1.7776,76.8931,250.1298,-132.6336,1.792,0,NONE,5
17.770,22.88,68.11,1004.36,0.000000,0.000000,0.00,0,1,-0.0483,-0.1809,1.8997,245.5802,250.1298,-184.5878,1.909,0,NONE,5
17.852,22.90,68.07,1004.36,0.000000,0.000000,0.00,0,1,-0.0336,-0.1680,1.8354,238.9542,250.1298,-190.3206,1.843,0,NONE,5
17.947,22.90,68.03,1004.33,0.000000,0.000000,0.00,0,1,-0.0581,-0.1299,1.3640,76.1069,140.8092,-178.1603,1.371,0,NONE,5
17.999,22.90,68.01,1004.31,0.000000,0.000000,0.00,0,1,0.0522,-0.1255,1.1680,-15.6412,76.2901,-155.2672,1.176,0,NONE,5
18.053,22.87,68.00,1004.29,0.000000,0.000000,0.00,0,1,0.1243,-0.2007,1.1113,-38.6107,-133.7786,82.0687,1.136,0,NONE,5
18.136,22.87,68.00,1004.29,0.000000,0.000000,0.00,0,1,0.1211,-0.1870,1.1802,-27.3130,-157.3206,112.4122,1.201,0,NONE,5
18.231,22.90,67.99,1004.31,0.000000,0.000000,0.00,0,1,-0.1111,-0.3267,1.9999,48.8244,-250.1374,250.1298,2.029,0,NONE,5
18.286,22.91,67.93,1004.34,0.000000,0.000000,0.00,0,1,-0.4858,-0.3279,1.9999,74.7176,-250.1374,250.1298,2.084,0,NONE,5
18.383,22.88,67.95,1004.27,0.000000,0.000000,0.00,0,1,-0.2893,-0.2532,1.9999,53.0611,-148.9924,250.1298,2.037,0,NONE,5
18.479,22.89,67.97,1004.26,0.000000,0.000000,0.00,0,1,-0.1292,-0.1221,1.9590,4.7328,-46.1298,250.1298,1.967,0,NONE,5
18.533,22.89,67.97,1004.26,0.000000,0.000000,0.00,0,1,-0.0063,0.1226,1.3281,-21.6412,-7.4275,250.1298,1.334,0,NONE,5
18.584,22.87,67.91,1004.20,0.000000,0.000000,0.00,0,1,0.0119,-0.0554,1.1165,-37.0763,-41.1679,250.1298,1.118,0,NONE,5
18.646,22.87,67.91,1004.20,0.000000,0.000000,0.00,0,1,0.0434,0.1030,0.7651,-41.6260,-65.6641,250.1298,0.773,0,NONE,5
18.729,22.88,67.88,1004.23,0.000000,0.000000,0.00,0,1,0.0827,0.1353,0.8984,57.2061,43.6947,250.1298,0.912,0,NONE,5
18.783,22.91,67.89,1004.25,0.000000,0.000000,0.00,0,1,0.1257,0.1497,0.8860,94.5038,68.0153,250.1298,0.907,0,NONE,5
18.906,22.87,67.85,1004.21,0.000000,0.000000,0.00,0,1,0.3523,-0.0466,1.9999,250.1298,250.1298,250.1298,2.031,0,NONE,5
18.960,22.87,67.85,1004.21,0.000000,0.000000,0.00,0,1,0.3218,-0.1235,1.9999,250.1298,250.1298,250.1298,2.029,0,NONE,5
19.013,22.91,67.84,1004.27,0.000000,0.000000,0.00,0,1,0.3188,-0.0256,1.9999,250.1298,250.1298,-26.7710,2.025,0,NONE,5
19.074,22.89,67.80,1004.26,0.000000,0.000000,0.00,0,1,0.0896,0.2554,1.9999,250.1298,-97.7405,-139.6641,2.018,0,NONE,5
19.135,22.89,67.80,1004.26,0.000000,0.000000,0.00,0,1,-0.0271,0.0207,1.9999,250.1298,-250.1374,71.0382,2.000,0,NONE,5
19.227,22.90,67.80,1004.32,0.000000,0.000000,0.00,0,1,-0.2214,0.1689,1.6658,250.1298,-197.7405,103.8626,1.689,0,NONE,5
19.281,22.91,67.75,1004.34,0.000000,0.000000,0.00,0,1,-0.0551,0.0529,1.1653,250.1298,-119.2824,52.3817,1.168,0,NONE,5
19.333,22.91,67.75,1004.34,0.000000,0.000000,0.00,0,1,-0.1072,0.0610,0.9534,48.1069,-132.5954,9.4580,0.961,0,NONE,6
19.393,22.91,67.72,1004.31,0.000000,0.000000,0.00,0,1,-0.0356,0.0683,0.8323,-250.1374,-21.8321,-34.4198,0.836,0,NONE,6
19.476,22.91,67.72,1004.31,0.000000,0.000000,0.00,0,1,-0.0947,-0.0625,1.0400,-250.1374,0.8244,-22.5878,1.046,0,NONE,6
19.531,22.91,67.72,1004.31,0.000000,0.000000,0.00,0,1,0.0388,0.0036,1.1431,-250.1374,98.3817,-16.3817,1.144,0,NONE,6
19.593,22.90,67.69,1004.33,0.000000,0.000000,0.00,0,1,-0.1343,-0.1123,1.9999,-250.1374,122.2061,27.6031,2.008,0,NONE,6
19.676,22.90,67.69,1004.33,0.000000,0.000000,0.00,0,1,-0.1423,-0.1736,1.9999,-250.1374,146.9313,44.6947,2.012,0,NONE,6
19.731,22.90,67.69,1004.33,0.000000,0.000000,0.00,0,1,-0.1748,-0.0776,1.9999,-250.1374,248.9160,240.8931,2.009,0,NONE,6
19.794,22.91,67.64,1004.34,0.000000,0.000000,0.00,0,1,-0.2139,-0.1960,1.9999,-250.1374,141.7328,250.1298,2.021,0,NONE,6
19.854,22.91,67.61,1004.29,0.000000,0.000000,0.00,0,1,-0.1548,-0.1001,1.7583,-250.1374,-250.1374,231.6260,1.768,0,NONE,6
20.006,22.92,67.61,1004.29,0.000000,0.000000,0.00,0,1,-0.1265,-0.0654,1.5967,-250.1374,-250.1374,195.5878,1.603,0,NONE,6
20.093,22.92,67.59,1004.24,0.000000,0.000000,0.00,0,1,0.0788,-0.0441,1.0146,-250.1374,-250.1374,-11.4427,1.019,0,NONE,6
20.148,22.92,67.58,1004.23,0.000000,0.000000,0.00,0,1,0.0883,0.0244,1.0393,-250.1374,-250.1374,-177.0611,1.043,0,NONE,6
20.201,22.92,67.58,1004.18,0.000000,0.000000,0.00,0,1,-0.0024,0.1472,1.6147,-250.1374,-70.5420,-250.1374,1.621,0,NONE,6
20.283,22.90,67.58,1004.18,0.000000,0.000000,0.00,0,1,-0.0297,0.1763,1.8694,-250.1374,13.6870,-250.1374,1.878,0,NONE,6
20.379,22.93,67.56,1004.24,0.000000,0.000000,0.00,0,1,-0.0205,-0.2747,1.9999,-250.1374,250.1298,-250.1374,2.019,0,NONE,6
