Time_s,AccelX_g,AccelY_g,AccelZ_g,GyroX_deg_s,GyroY_deg_s,GyroZ_deg_s,Pressure_hPa,Temperature_C,Humidity_%,TotalAccel,FlightStarted,altitude,velocity,theta,angular_velocity,mass,thrust,drag,parachute_deployed
0.0,-0.014966759200696674,-0.0029148397607889447,2.7085075772601823,0.013955210252643385,-0.007093692605019036,0.0006957155300481721,1013.25,15.0,50.476753846581325,2.7085504972674266,0,0.0,0.0,-0.0008020027255502571,0.10686696722196433,7.5,200.0,0.0,False
0.02,-0.0007904433815299766,0.005278497147941228,2.71701603024266,0.02529900829309868,0.008356380659802452,-0.006580180553355761,1013.249936567704,14.999996569050268,46.11241077304633,2.7170212726308316,0,0.0005278384224161255,0.1334604753356356,0.010760990350107583,1.2890926262539983,7.483333333333333,200.0,5.454887001515251e-05,False
0.04,0.008074522138547337,0.006355422609935781,2.732176267502083,0.004064843569132377,-0.010513374199266592,-0.0015822794256483365,1013.2492087492767,14.999957202522808,54.68341947235606,2.7321955907302704,0,0.006584227260006024,0.47237692384267593,0.029934356458845294,0.8081771984346285,7.466666666666667,200.0,0.000683372532354418,False
0.06,-0.0013554423107835674,-0.006080133623790498,2.7389097304389374,0.020351370311007526,-0.0034516823581564825,-0.007334437382229018,1013.2476649221253,14.999873699320801,56.37635875698481,2.7389168144983587,0,0.019430873726547816,0.8124865285992315,0.045650915822550424,0.74419417675524,7.45,200.0,0.0020216779449991006,False
0.08,0.0022794779054052215,4.678122122019542e-05,2.7529749975868176,0.013156731628991346,-0.0005840489363717433,0.0061226649109744685,1013.2453022160516,14.99974590403599,39.93077385088503,2.752975941694032,0,0.03909168677235439,1.1537927192865927,0.06082186887424896,0.7547526374438623,7.433333333333334,200.0,0.0040769407849665165,False
0.1,-0.001449726051572832,-0.024285377625373243,2.7638502109412926,0.012715139022577223,-0.0059059489393609175,-0.010871804949351875,1013.2421177579564,14.999573661015177,40.99511994582885,2.7639572843646225,0,0.06559061305034136,1.4962989230660326,0.07597243662203332,0.7626000168388235,7.416666666666666,200.0,0.0068566887671429756,False
0.12,-0.007602401540424481,0.010858638698275474,2.7399171627039522,0.013969903295720985,0.01124933892078142,0.0011776728165246348,1013.2381086547663,14.999356813435952,47.43925536239486,2.739949226723597,0,0.09895177908274404,1.8400085891253415,0.09291964911378625,0.9303523616808077,7.4,200.0,0.010368502079473882,False
0.14,0.010759059898478123,-0.02285473898539405,2.7665629390713296,0.01517638296739071,-0.006246779817493885,0.02211886495463809,1013.2332720275804,14.999095205152344,44.68006932022217,2.766678259629584,0,0.13919920733258323,2.1849251395885174,0.11100236721952696,0.8700727246412302,7.383333333333333,200.0,0.014620013143605434,False
0.16,0.004905455418570706,0.0044101351549900355,2.783994743430007,0.004212422318973185,-0.005187094124579434,-0.025077404784600334,1013.2276049925489,14.998788679659754,52.18195589931045,2.784002558229942,0,0.18635697542138208,2.531051996167491,0.1285208384069592,0.8823024779344053,7.366666666666667,200.0,0.01961890692736704,False
0.18,-0.004956254326176428,0.009521625495019944,2.765524926708295,0.034233616953581465,-0.010218101618631275,-0.016707643539211926,1013.2211046354527,14.998437078718837,50.838174820743184,2.76554575916833,0,0.24044942786859866,2.878392617793319,0.1460031856764497,0.8645665805314896,7.35,200.0,0.025372921787284564,False
0.2,0.021476506125270207,0.008981464776234238,2.7694361123105105,0.011574256158734695,0.01392693519319088,-0.0020796694298596454,1013.2137680080814,14.998040242158595,52.7874700903056,2.7695339476515595,0,0.3015012063674922,3.226950504647586,0.16374064645299852,0.9051054486551867,7.333333333333334,200.0,0.03188985012847303,False
0.22,0.005167572978022167,-0.002517914087299899,2.795895084768003,-0.0004607246406519959,0.007950926685236651,-0.00581218961009431,1013.2055922804797,14.99759801611009,31.059411136675113,2.7959009940861126,0,0.3695359830640813,3.5767289809138507,0.1821214300087069,0.9189449180427637,7.316666666666666,200.0,0.03917753427719751,False
0.24,0.021748996812854565,-0.0013195627737291622,2.7919441372853098,0.025717869815615753,0.00207875677565919,-0.020876442981566785,1013.1965744801876,14.997110238901257,55.78607401401295,2.7920291592012596,0,0.4445786305765323,3.927731567157008,0.20078736258022914,0.9452348419213964,7.300000000000001,200.0,0.04724387373016709,False
0.26,0.00815029984547749,-0.004982118382434155,2.8109262920738844,0.004995361515906162,0.001523079248075661,0.004267903468385947,1013.1867116505595,14.99657674961884,39.16624322312508,2.8109425231340794,0,0.526653904793816,4.279961754025254,0.21724028974058365,0.7641166589063263,7.283333333333333,200.0,0.056096821518808834,False
0.28,0.01935631276689343,-0.007044449812510791,2.795992438197243,0.011141670173873686,-0.010007552779866391,-0.008649808109698507,1013.1760009257981,14.995997392166373,43.62046204918484,2.796068312036252,0,0.6157858205541755,4.63342289302248,0.23281183804863848,0.7962287722541179,7.266666666666667,200.0,0.06574438098008875,False
0.3,-0.0042864507296067255,-0.000881594954129742,2.8118079700229184,0.03255277654171104,0.0032472961782674366,0.009818605365748486,1013.1644392768733,14.9953720015194,71.47988503629551,2.811811375457807,0,0.7119997662443096,4.988118564883614,0.24908418162849483,0.8316123552693179,7.25,200.0,0.07619461567505632,False
0.32,0.004412553948146049,-0.014451714905866359,2.805436177633997,0.019056638006208323,0.004739917037081369,-0.002424639315857833,1013.1520238783066,14.994700423564211,53.71529379318777,2.8054768702439374,0,0.8153194516632756,5.3440520459695025,0.26650816184444637,0.909420207839753,7.233333333333333,200.0,0.08745563461767283,False
0.34,0.004158854172612874,0.008223331228400157,2.8027814086953784,0.004167099775458007,0.005220395941318718,-0.0024963807411850676,1013.1387516066889,14.993982487970698,39.2486400930881,2.8027965577567295,0,0.9257710814337282,5.701227039449483,0.28517737637974044,0.9507449182784004,7.216666666666667,200.0,0.09953561464022304,False
0.36,0.005892739330421048,-0.015849510115897178,2.8461263388622147,0.021340496904769756,0.009314437196580639,-0.01463044391382048,1013.1246196705125,14.99321804226031,51.36568543993048,2.846176570087134,0,1.0433781137945997,6.059646757098761,0.3062934684645715,1.0864237493471727,7.2,200.0,0.11244277121317926,False
0.38,0.01452010188419975,-0.008194353119963863,2.8441992187032334,0.0313924289520635,-0.007196113588886541,-0.0070881540684970155,1013.1096250599081,14.992406922039834,32.995822064692135,2.84424808630574,0,1.1681658400226462,6.4193147195737215,0.330146818871901,1.2369492325513274,7.183333333333334,200.0,0.12618538466050255,False
0.4,-0.0035696293792337537,-0.014441985449573091,2.851851530114832,0.027594900136626254,-0.0002487027812940373,0.0033187782921030966,1013.0937647673413,14.991548962938055,57.83708124854115,2.8518903315197695,0,1.3001595479873516,6.780234434011353,0.3549700515346753,1.2462023381382947,7.166666666666667,200.0,0.14077179036331908,False
0.42,0.009686472942170857,-0.009996471809075234,2.8405850723423285,0.021834917126916015,-0.002034533363414788,-0.0037985035346492593,1013.0770356651949,14.990643993982587,57.810832502698204,2.8406191772958165,0,1.4393855411447791,7.142409574314177,0.38000640248982165,1.2597915702422735,7.15,200.0,0.15621038666851234,False
0.44,0.014119514588795713,-0.006187953253966568,2.8497730905826733,0.0116455922394183,0.0036815712976975214,-0.002780461534340219,1013.0594350974924,14.989691869608237,47.38118276108124,2.8498147868355965,0,1.5858662141185096,7.505843126393086,0.4048662049560927,1.2255465833207622,7.133333333333333,200.0,0.17250959771380062,False
0.46,0.0272463693249443,-0.01113840253201446,2.860785009889211,0.015300541380651445,0.002857610962834245,0.014498431137128537,1013.0409598802587,14.988692415580033,43.344043200073045,2.860936437857222,0,1.739628372298901,7.870538821650891,0.42925680814761985,1.2111774076794617,7.116666666666667,200.0,0.18967793491914228,False
0.48,0.009315236086388004,0.009452036906584867,2.862743696656648,0.01842820481894186,0.0020801645529340803,0.02745713005737577,1013.0216070812386,14.98764547117122,44.86223518408608,2.8627744562526054,0,1.9006967428876824,8.23650003992324,0.4522060571944206,1.0864654637899471,7.1,200.0,0.20772395024189774,False
0.5,0.02426765750743114,-0.009403883348403343,2.886249851727687,0.013534182080753993,0.005301665669111539,-0.006808999836381542,1013.0013734110911,14.986550856227439,63.612100045397455,2.8863671905738224,0,2.069099041928285,8.603730642775895,0.4740625227342852,1.1050660436258715,7.083333333333334,200.0,0.2266562762398752,False
0.52,0.02898251373149169,0.00010603262797272909,2.877043406014704,0.04233151014868927,-0.0030170098322041834,0.008865577955069589,1012.9802563052752,14.985408429693848,64.71024193927295,2.877189385048854,1,2.244856970176878,8.972233451578303,0.4967646068547706,1.1645711228206066,7.066666666666666,200.0,0.246483548245118,False
0.54,0.0023780767109183062,0.006047133843677728,2.8867818268964283,0.002572947629270274,0.008774126339129825,0.0029423262877161733,1012.9582524427077,14.984218009475399,42.56481497489686,2.886789140061332,1,2.4279985422442123,9.342012352702557,0.5193190113543303,1.0949076947578995,7.05,200.0,0.2672145129776859,False
0.56,0.03487017496878025,-0.012704637601030896,2.8898264580973314,0.022390892042967632,0.008330949513894714,-0.0015074850496705732,1012.9353590461948,14.982979442787894,49.218888321761206,2.8900647561669435,1,2.6185472633970437,9.713070475451271,0.5416205295939404,1.136075363379142,7.033333333333333,200.0,0.2888579326354965,False
0.58,0.015116224110585922,0.01001852260177642,2.913796225334469,0.024569214310138303,-0.000845159918168627,-0.010914697785033763,1012.9115726615634,14.981692540106906,59.20220030962005,2.9138526582172752,1,2.8165322912437634,10.085411870657301,0.5649442966706656,1.193200608014067,7.016666666666667,200.0,0.31142267988945554,False
0.6,0.006628338722144021,-0.007802688504391649,2.9045857131331903,0.029689935976238886,0.018822666647748464,-0.003102327254131239,1012.8868906970623,14.980357158450829,52.42310365027727,2.9046037564114586,1,3.021975622949383,10.459039376485508,0.5920784943598953,1.5247986550153638,7.0,200.0,0.33491761224213557,False
0.62,0.01381408312969365,-0.025189682837196515,2.9090850146707705,0.021608846392212243,0.00958416376866598,-0.003394678787678351,1012.8613100578905,14.978973127505299,69.32994472933059,2.9092268683614533,1,3.234903460720244,10.833956521350945,0.6201321938008321,1.2692974015037857,6.983333333333333,200.0,0.35935168426605985,False
0.64,0.015317251796220515,-0.008182104546516078,2.9157201573395546,0.003412334279927723,-0.007635678129236798,-0.007839678710384686,1012.8348275744173,14.977540272788701,58.86347758679291,2.9157718705264988,1,3.4553426478956357,11.210166938991977,0.647009956575498,1.4119937689337385,6.966666666666667,200.0,0.3847339156141413,False
0.66,0.01867917168478264,0.012009271530093273,2.917915436940645,0.01903173039953624,0.014586601213590416,-0.006347719697497607,1012.8074401972896,14.976058426207146,40.54440193583367,2.9179999368050074,1,3.6833190450504354,11.587674078530291,0.6749516228718524,1.3823548125684395,6.95,200.0,0.41107337190445764,False
0.68,0.03220731550545553,0.009170080928813372,2.9249487163524224,0.016099780095932666,0.006403406924142514,0.0037141895704611828,1012.7791447641475,14.974527413431417,28.174616151835284,2.925140406005837,1,3.9188594720926906,11.966481529680253,0.7009460982628568,1.2155081609585294,6.933333333333334,200.0,0.4383791865301195,False
0.7000000000000001,0.019250599992670644,0.01686306086795708,2.9519067089671047,0.015435632633764611,0.0172794320963592,0.005013343442100936,1012.7499383554277,14.972947073147338,45.37897284824879,2.9520176433867933,1,4.161988746566138,12.346592558208169,0.7324375091542747,1.4763375471208415,6.916666666666666,200.0,0.4666605274744942,False
0.72,0.025528657533615197,-0.004060225033330123,2.9532899790562004,0.02346225050239383,0.007142684819760829,0.0037645894056619984,1012.7198178633912,14.97131723373576,48.54614533880155,2.9534031045857185,1,4.412733271423382,12.728010659979638,0.7633101157227297,1.6124365254302344,6.9,200.0,0.49592663675071,False
0.74,0.02336027134754936,-0.004984041485073504,2.9421254760813498,0.018821617736289965,-0.018128836376269532,-0.0004620842484773715,1012.6887802182312,14.969637725505322,73.80007632319824,2.942222435499034,1,4.671119153028355,13.110739266078618,0.7965120543264644,1.6923042735913318,6.883333333333333,200.0,0.5261868096604998,False
0.76,0.037328365847975734,0.005446833247778986,2.9535869515177207,0.02511004873186704,0.0061150490443597225,-0.0021739553537714344,1012.6568223639734,14.967908379387495,46.41453423177921,2.9538278479060103,1,4.937172401926753,13.494781797507923,0.8305773178955411,1.7150476569206112,6.866666666666666,200.0,0.5574503987249837,False
0.78,0.0478133560147567,0.030155551356936598,2.9613781195843276,0.03936838780218719,-0.013450042233179232,0.02045490685240127,1012.6239410254149,14.96612901432286,62.78643497840213,2.961917595316224,1,5.210920873408025,13.880141955540491,0.8666295143315208,1.8730899137526427,6.85,200.0,0.5897268383032972,False
0.8,0.05259695478806729,0.025014949463305743,2.9692959443609737,0.042813652578122724,0.003276834263681965,0.005449191675649797,1012.5901334221957,14.964299475902067,45.66496567265649,2.969867100149122,1,5.4923883227603625,14.26682273980594,0.9153666165534232,2.5175180011132055,6.833333333333334,200.0,0.6230255626458238,False
0.8200000000000001,0.04032614364323585,0.0056424062863501675,2.9797887314752867,0.02969906736401183,0.005332345851847915,-0.0002984002291140794,1012.5553962455564,14.96241958099148,40.002021958818915,2.9800669319391018,1,5.781602924390273,14.654827880751677,0.9657012339579606,2.515788547609556,6.816666666666666,200.0,0.6573561258005406,False
0.84,0.018778784471611958,0.0011794072523104988,2.974588741252096,0.02667063766982681,-0.009459514974368022,-0.007562430376062397,1012.5197261197839,14.96048914270176,49.591213041186165,2.9746482503535483,1,6.078593430498221,15.044161192950297,1.015217689808347,2.436659609471768,6.8,200.0,0.692728151077588,False
0.86,0.026589001839127418,0.0011262580255935602,3.001173432831684,0.060121254844990375,-0.00109040927506384,-0.005266604947757587,1012.4831204671792,14.958508017199165,44.422658956018914,3.001291424938714,1,6.383381969361636,15.434825359350949,1.0664291153798287,2.6835114701288285,6.783333333333333,200.0,0.7291512178760405,False
0.88,0.03230277638126799,-0.0001235427478803239,3.011975781571087,0.02680820789142634,0.011626523589285787,0.00910631018598196,1012.4455758609892,14.956476014566022,65.6335168381959,3.012148999202315,1,6.695997759074882,15.8268242529971,1.1197615162083605,2.6495673336672145,6.766666666666667,200.0,0.76663507235493,False
0.9,0.04706768903812716,-0.0019552416993116398,2.9906852702756646,0.06037145835314195,0.01471269154418165,0.007648770421364536,1012.4070889971366,14.95439295138749,57.90132317975481,2.9910562642928196,1,7.01646901730782,16.22016155212234,1.1795524372628046,3.70954250237637,6.75,200.0,0.8051895048544592,False
0.92,0.05110445783754909,-0.00899986949167094,3.007535698082786,0.07017573559532098,-0.0021057958584072656,-0.005190737770874301,1012.3676574351168,14.95225869085317,36.176052402184524,3.007983317524226,1,7.344816791821943,16.614839703545936,1.2540678902937876,3.7423174845533045,6.733333333333333,200.0,0.844824242850148,False
0.9400000000000001,0.04514025094568516,0.0034848010216287453,3.001937940938869,0.06977587376105031,-0.0036641435397630952,0.017996878282200996,1012.327277456721,14.95007302685974,45.14144322588945,3.0022793319979235,1,7.681072790805537,17.010862938987163,1.328492368759,3.700225379531147,6.716666666666667,200.0,0.885549248905384,False
0.96,0.046484902577552785,0.01622142406221305,3.032455412982975,0.08450838909899028,0.010599990182765234,0.010076849426974623,1012.2859460613713,14.947835792005947,55.71096648870255,3.0328550595925283,1,8.025262768316647,17.40823447423953,1.4021580246607694,3.65964003738898,6.699999999999999,200.0,0.9273744452947266,False
0.98,0.06359786400978638,-0.011478984252875602,3.029761550791856,0.06674794270314129,-0.010228080229875534,-0.010689037839270886,1012.2436601413257,14.945546812950113,44.14912416198165,3.030450710710002,1,8.377413392286858,17.80695770792932,1.4774687951185401,3.883539338198552,6.683333333333334,200.0,0.9703098319778073,False
1.0,0.036625259509900095,-0.017227567178767264,3.055566750947202,0.06835052391238335,0.0026853641812275837,0.02559232027086135,1012.2004163945005,14.943205905688387,52.524049970352934,3.055834807086127,1,8.737552971019854,18.207036233051788,1.5548295182230398,3.8491241314366715,6.666666666666667,200.0,1.0143654901803276,False
1.02,0.05776613889671347,0.0032901187056801205,3.0375330112868673,0.06561558265022105,-0.0020138537158189535,0.010330266528843519,1012.1562119484099,14.940812909329054,41.7280615483991,3.038084025556501,1,9.105706257069292,18.608473043238686,1.6307240172094446,3.739422191986779,6.65,200.0,1.0595514950459883,False
1.04,0.07843622064369755,0.008775822363577806,3.048031568917674,0.06295355914638504,-0.0058309372734067005,0.018660261417196886,1012.1110432821214,14.938367627732475,49.160761330585956,3.049053246646532,1,9.48190342577388,19.011271999858675,1.7044117744132052,3.6911142205638785,6.633333333333333,200.0,1.105878078245736,False
1.06,0.06798852221226152,-0.0017244385905416436,3.074045945452864,0.06268271221579738,0.010509886106827784,0.004271173733374406,1012.0649075274665,14.935869899950546,46.553142563732536,3.0747981864825293,1,9.866169238374676,19.415436167474876,1.7781930895656033,3.691688811683017,6.616666666666667,200.0,1.1533554421375332,False
1.08,0.0685310459746517,0.0012503625026134711,3.080606369993936,0.06580640269598881,-0.0025667090740008535,0.002503978511194727,1012.0178013072898,14.933319537332409,31.12502358550268,3.0813687988483274,1,10.258532718089945,19.820969168130496,1.8505630974688054,3.54532311951069,6.6,200.0,1.2019939133574646,False
1.1,0.07210649851664254,0.002903024486819281,3.0796851329445807,0.06979489932844474,0.004043451022736456,-0.008166648025304975,1011.9697213535859,14.93071635698658,54.88620980577769,3.0805305213159926,1,10.65902200206496,20.22787439548159,1.9211556035072972,3.5136530054971913,6.583333333333333,200.0,1.251803853133406,False
1.12,0.07120805847124617,-0.0006932462058945022,3.09046838726894,0.06655610640269868,-0.004120280105459811,-0.00962514495077492,1011.9206649024469,14.928060203164932,41.11854479732459,3.09128871522707,1,11.067661051547462,20.636154834712315,1.9924243778181074,3.616036588325384,6.566666666666666,200.0,1.302795632309563,False
1.1400000000000001,0.08337755539864702,-0.00381095844594533,3.0857346785119395,0.08108737199754529,0.011753383102236599,-0.000865557441800115,1011.8706286286292,14.92535088957601,34.47123208138187,3.0868632697804603,1,11.48447852677185,21.045813983807474,2.0641865602551093,3.5603872761106126,6.55,200.0,1.354979743972746,False
1.16,0.09237939590087922,-0.00968933856139626,3.088782130339898,0.07121462722581752,0.00729777254550867,0.002773502340447941,1011.819608147845,14.922588172426174,59.0912981710501,3.090178455166602,1,11.909511934435308,21.456856814943578,2.140516332358894,4.0396018258871935,6.533333333333333,200.0,1.4083669355399382,False
1.18,0.08991409233906328,-0.005774571385395508,3.104177126732469,0.05843792942423536,-0.0015394685163665964,0.008484454708862766,1011.7676024085839,14.9197719882348,43.674126745396805,3.105484426591911,1,12.342771040802248,21.86928373120848,2.220866047510957,4.001144125163327,6.516666666666667,200.0,1.462967423848349,False
1.2,0.06822328209225434,0.011100172838001212,3.1140266419131284,0.078672146925736,0.004405562456436111,0.008864338791969193,1011.7146069488989,14.916902088692723,44.63074222450307,3.1147936619624144,1,12.784294047272526,22.283099814839805,2.3006748621617956,3.9797409124113723,6.5,200.0,1.5187920909722,False
1.22,0.09230612375909492,-0.014742046671336485,3.113866142937459,0.07494314997821752,0.001947622596955602,-0.004602906319535602,1011.6606178665613,14.91397825563422,37.981497192007616,3.1152688655324274,1,13.234114517816236,22.698309314813102,2.380101893511054,3.96276089397264,6.483333333333333,200.0,1.5758517822596667,False
1.24,0.07673071418938006,0.002753147109616546,3.1323125379231014,0.06335949492604799,0.015509262713328482,-0.015255940902958526,1011.6056314962575,14.91100028355902,47.68698680657466,3.133253423767264,1,13.692264067842753,23.114916260204083,2.4606801221438297,4.09428017698449,6.466666666666667,200.0,1.6341573824555549,False
1.26,0.07368560047487506,0.023530131940326035,3.140542907247734,0.07084897818339378,-0.006235752161476624,-0.00874305468500488,1011.5496469475736,14.907968117095493,31.610865419747782,3.1414953425224943,1,14.158751216078631,23.53292073496076,2.541402871773186,3.977913273003271,6.45,200.0,1.6937192803849621,False
1.28,0.08174170422589871,0.00927334215802132,3.1411557952986757,0.06393170136040316,-0.01116193149472342,-0.002830438487473225,1011.4926606590316,14.90488155605567,60.599270410586996,3.1422328735189233,1,14.633606760663824,23.95232650833395,2.621764323078435,4.058595525366028,6.433333333333334,200.0,1.75454842959201,False
1.3,0.11845647341110582,-0.009340674704676285,3.166603444869488,0.07887798790850785,0.002240349358922095,0.008464359607489287,1011.4346691152251,14.901740402580288,59.553769341246976,3.168832050039296,1,15.1168611414978,24.373137262336005,2.7024356320416447,4.006033713113409,6.416666666666666,200.0,1.8166558364558558,False
1.32,0.10551090182793144,0.0023032693078884094,3.1490016920030306,0.05797564256845637,0.00021247945910615165,-0.02246718625799206,1011.3756687119342,14.898544453830937,49.01233190307455,3.1507696697302388,1,15.608545564475339,24.79535686003321,2.782519253746852,4.00385852695553,6.4,200.0,1.8800525997396338,False
1.34,0.10915275445431102,-0.010692144223813134,3.1552745906909467,0.05842131412837347,0.005057663333579369,0.012128434996233442,1011.315655707852,14.895293499372372,53.06484155602145,3.1571801323986866,1,16.108692404247698,25.21898926294291,2.8620335571643936,3.947932556371073,6.383333333333333,200.0,1.9447499002619177,False
1.36,0.11489443074046288,-0.016600792139960505,3.159427942307092,0.07477818586533148,-0.009774212227217952,0.003757407999081391,1011.2546263638862,14.89198732871563,48.0188817589175,3.161559937617137,1,16.61733404374812,25.644038443860637,2.941793256427778,4.027921838749167,6.366666666666667,200.0,2.010758988873945,False
1.3800000000000001,0.10002314025987596,-0.0007323091258276881,3.160150185077821,0.07273235198565034,-0.012450467526391786,0.010858360130892091,1011.1925795921708,14.888625874832996,36.50323126006299,3.161732809253731,1,17.134480794919945,26.070504658152704,3.022954865029386,4.087595013859619,6.35,200.0,2.0780905967715815,False
1.4000000000000001,0.12035442113478086,0.010593022567918536,3.1837528910979045,0.0684951311151319,-0.011478092380775653,-0.012727384459923996,1011.1295111810848,14.885208901302917,57.92737939333148,3.186044549341405,1,17.66016903031975,26.49839255403977,3.10290977052068,3.9073477936495653,6.333333333333333,200.0,2.146756192107325,False
1.42,0.12042920139896733,-0.01885575823230284,3.1944109614446647,0.05926828792499153,0.011777430441905027,0.004569880259271889,1011.0654173541687,14.881736195098824,57.68199678946975,3.1967358543936557,1,18.194431523259528,26.927706043474,3.1823841487880444,4.042117780400852,6.316666666666666,200.0,2.2167671983248294,False
1.44,0.13036018336750207,0.009495367524969675,3.19947873086504,0.06878329651997034,0.003422391952248301,0.0014589966948856518,1011.0002953218838,14.878207596490654,56.526027796743904,3.2021474183225562,1,18.737292847595732,27.35844778777123,3.261755036372557,3.8950855192447613,6.3,200.0,2.2881348998316584,False
1.46,0.12638494595958805,-0.0032167276130045546,3.2091699726348186,0.051911714803343154,0.0037118659866045836,-0.0017810428425806843,1010.9341416481071,14.874622910539983,48.20784517667856,3.211659293132244,1,19.288782993850297,27.79062117653899,3.338322600927789,3.76168918102381,6.283333333333333,200.0,2.360870759141253,False
1.48,0.12614389944588114,0.0034726442948955936,3.2016602788913207,0.06409918920443981,0.0026991417611106896,2.386377199124449e-05,1010.866952179525,14.87098190326276,47.48596953919236,3.2041462020413896,1,19.848937959576812,28.22423069748372,3.4138060897382796,3.7862886785179093,6.266666666666667,200.0,2.4349864900584386,False
1.5,0.1362839677263766,-0.018509403042599046,3.229775940708214,0.055263289396022805,-0.0016279577327584396,0.013067182390952909,1010.7987248197252,14.867284451957914,43.622741867602095,3.2327029781651557,1,20.417776621856405,28.659277911289315,3.489283189436931,3.7578890079536236,6.25,200.0,2.5104933725469225,False
1.52,0.1331637964411545,0.017830331047429877,3.236827490358361,0.07049580762268663,-0.015959214164129952,0.0024489981788119175,1010.7294563126104,14.863530370905096,43.21758454965205,3.2396145943194363,1,20.995327553065373,29.095766033271946,3.564753917136287,3.789241269847957,6.233333333333333,200.0,2.587403022879789,False
1.54,0.16534740049390215,0.010745126890465978,3.2323853218153107,0.06019580665918506,0.010164660219640504,0.005853372320722167,1010.6591432296169,14.85971946485381,52.395661523944185,3.236629433421295,1,21.58162079171896,29.533698374433914,3.640165599516409,3.75197222010694,6.216666666666667,200.0,2.665727136023642,False
1.56,0.1562814378354325,-0.004308935660146418,3.239856318847237,0.06167043116854658,0.007944212542573,-0.009892972933822538,1010.5877819801685,14.85585152958572,55.40161488631095,3.2436262764863653,1,22.176687756044636,29.973078586710955,3.714650695790631,3.6969934875332386,6.2,200.0,2.7454775319390055,False
1.58,0.13934993846611507,0.0006524416462079045,3.250711184642326,0.07256240915012366,-0.010653639522363994,-0.013417462507310761,1010.515368827808,14.851926352785028,39.11892153923914,3.2536966725540544,1,22.780561109992927,30.413910424766637,3.788771428533996,3.715306614476432,6.183333333333334,200.0,2.826666115990394,False
1.6,0.15119512742370808,0.0022024629769430894,3.2365844133115433,0.0752903635376285,0.006131465086761699,-0.006540181020222598,1010.441900498193,14.847943746993792,43.351090249108154,3.240114732828309,1,23.39326969326243,30.85619699335277,3.8647131047078513,3.8750644729104975,6.166666666666667,200.0,2.9093047399267147,False
1.62,0.1596985546543482,-0.002259211806463133,3.24930830283646,0.07509746207901168,0.014775004363907116,0.001254005262457918,1010.3673753648748,14.843903613902626,61.14628452417743,3.2532311905671,1,24.01482863036325,31.299939193493223,3.9414378173951596,3.877238149289813,6.15,200.0,2.9934048990661752,False
1.6400000000000001,0.15680997871590707,-0.008427527164142789,3.269387484075904,0.0371972201950278,0.016414446066911982,-0.001810493205435832,1010.2917887440286,14.839805689272396,48.56778451568829,3.2731567199984717,1,24.645278573474013,31.74514197190767,4.0195891096055565,3.937493026810031,6.133333333333333,200.0,3.078978903783317,False
1.6600000000000001,0.15895315252238706,4.645653953062338e-05,3.270444536044039,0.07416500622611978,-0.0017822028757303924,-0.01277762984103625,1010.2151370069312,14.835649765860808,50.48114817180493,3.2743050514873113,1,25.28465140602789,32.19180891590603,4.097481594738008,3.8520780710238416,6.116666666666667,200.0,3.1660388806110293,False
1.68,0.1622680100259447,0.016748605201331597,3.2918847024004334,0.07123302991646997,0.011209237527634718,-0.009030731396800395,1010.1374173287857,14.831435679818185,48.789424307227456,3.2959241976647395,1,25.932972335664477,32.63994242522489,4.174634285149533,3.863077798262039,6.1,200.0,3.254596787948945,False
1.7,0.16173474857510153,-0.020657464534350693,3.289663448495897,0.07259789329073991,0.007690607310875476,-0.008673267751656924,1010.05862647369,14.827163244812425,53.15030056634288,3.293701635562571,1,26.590270028853528,33.089545461723205,4.251807804318371,3.854019382247324,6.083333333333334,200.0,3.344664750720318,False
1.72,0.17202911776671603,0.017768762545404437,3.273467085356849,0.06008571417866939,0.007336940699283049,0.0077961772135888546,1009.978759497664,14.822832181685328,51.25022312088814,3.278032413689141,1,27.256587433024386,33.54062336669666,4.327725606251671,3.738097230240718,6.066666666666666,200.0,3.436255436777494,False
1.74,0.1897400729316292,0.0005325370371658947,3.3072167311492273,0.062221763014015795,0.0015017079713452678,-0.009442484580528274,1009.8978163909054,14.818442478654958,45.742498634458094,3.3126551413730314,1,27.931926360778277,33.99317464524467,4.402938047856026,3.783115607171176,6.05,200.0,3.529380194237852,False
1.76,0.1567808387517735,-0.0052986951174645806,3.3197856261612277,0.06952488382729721,-0.007191708538300305,0.001958031432855639,1009.8157916807885,14.81399382749629,46.05150766161932,3.323489869284447,1,28.61633423133772,34.44720511098017,4.478291054825421,3.7523758284089475,6.033333333333333,200.0,3.6240519053066897,False
1.78,0.17565938203179726,-0.008048781766863787,3.334143422983443,0.0802159631567124,-0.011464521790455382,-0.005794720235481815,1009.7326822051837,14.809486045074095,53.598631936855206,3.3387772262323034,1,29.309839219367795,34.90271783787292,4.5557761873183,3.997693611493978,6.016666666666667,200.0,3.720282966197327,False
1.8,0.18692641001211227,0.007562020074265656,3.3203297893036225,0.061548591680767956,0.0065065037439304444,0.003642892653856138,1009.6484857023329,14.80491899689099,70.36385719090433,3.325595973151979,1,30.012462016772226,35.359714271732145,4.634900862628782,3.9150925322077286,6.0,200.0,3.818085486022314,False
1.82,0.19399486659395612,-0.0008025067634555176,3.335302078624251,0.07038157074028947,0.007753338462487217,0.0073388745386071584,1009.5631973483187,14.800292409266206,33.25277901590286,3.3409391805235193,1,30.72424472827252,35.81819933444869,4.71337199951897,3.886000044269478,5.983333333333333,200.0,3.917472370210407,False
1.84,0.17375854631998028,-0.00338459400006042,3.3503534434983893,0.06492346359540956,0.0049199330606813675,-0.019738434297575675,1009.4768132669591,14.795606059704994,54.03307511494311,3.3548579231104987,1,31.44522158384791,36.278176792438295,4.790898610077925,3.866641616915978,5.966666666666667,200.0,4.018456353251218,False
1.86,0.19224673292134056,-0.0006752164724870493,3.3457008309088683,0.060963450408232284,0.0042936286934350445,6.463384379283944e-05,1009.3893318755408,14.790859849928381,54.430345069400296,3.3512196753093506,1,32.17540770332654,36.73964713381544,4.869086387635751,3.951795023407753,5.95,200.0,4.121049511347984,False
1.8800000000000001,0.1956732095204027,0.013726661074656046,3.3538197880142167,0.07148468911118983,-0.005554025358005878,-0.002813103750899265,1009.3007498755578,14.786053588373818,58.26632458166034,3.3595511004632748,1,32.91483255787455,37.20261336265565,4.947086825951253,3.8731971223411823,5.933333333333334,200.0,4.22526452001926,False
1.9000000000000001,0.21914793393401652,0.012176066015130632,3.358378602294353,0.045981144749142014,0.006133140193754581,-0.0075632737567162146,1009.2110617425043,14.78118696247543,56.65207894240474,3.365543181995995,1,33.663544234546755,37.66708125777644,5.0252180624861875,3.938107117577515,5.916666666666666,200.0,4.331114746466697,False
1.92,0.21942530259733473,0.00012046963554702863,3.370103441115829,0.07687977561034938,0.022019460833194136,0.007487663524689983,1009.1202675064949,14.77625996085311,42.25309990319643,3.377239210028454,1,34.421544484140945,38.13304920212143,5.1033980807748565,3.880393986486154,5.9,200.0,4.438611947964409,False
1.94,0.21326237932168382,0.0006931264782961546,3.366400437088806,0.05993427343389812,-0.0027520451809281165,0.004698056827193499,1009.0283561917743,14.771271974657623,56.9170138791684,3.3731488591062746,1,35.18892697574873,38.60053023737878,5.185843306532498,4.1423295488166145,5.883333333333334,200.0,4.547771306043729,False
1.96,0.22922944970266,0.008095738893300895,3.374881200347522,0.0629670542842644,-0.0033904749725308966,-0.002514976955912091,1008.9353343417755,14.766223345562196,49.86617083559156,3.382666817476759,1,35.965639144279564,39.06951394449075,5.268943243574411,4.16749883994335,5.866666666666667,200.0,4.6586026458495144,False
1.98,0.22725330414798275,0.01701269776764575,3.3794406243862767,0.06482780170895731,0.008330817329786577,0.011352863620696986,1008.8411923694897,14.761113539624262,56.55126325867613,3.387115650503215,1,36.751763134728215,39.540011474986194,5.3521366501330165,4.151820695139502,5.85,200.0,4.771120848773064,False
2.0,0.23242622061438378,-0.015987492320721674,3.4027906538468122,0.05634589782985217,0.0060391312163140184,0.0010268878616507217,1008.7459305185558,14.755942556221669,39.94328709979413,3.410756775533402,1,37.54729904281683,40.01202093390664,5.433846462435447,4.0192122571173305,5.833333333333334,200.0,4.885337801341937,False
2.02,0.24525130243907037,0.0013569984652721692,3.417937406684527,0.06853923265182656,-0.008170949298118148,-0.0020079148814621333,1008.6495456048475,14.750710208481053,50.438514738651115,3.426725282074162,1,38.35227561830226,40.48554478614044,5.512787791444005,3.874998061354723,5.816666666666666,200.0,5.0012664604806725,False
2.04,0.2361148633403576,-0.018412837538086816,3.442096879052846,0.0744909632120099,-0.015547669537778705,-0.010266968044333118,1008.5520325354424,14.74541620567311,54.1154387117601,3.450234801584058,1,39.16673758875533,40.96058825439149,5.592101661613587,3.7031055466329343,5.8,200.0,5.11892052018484,False
2.06,0.2543539805623671,-0.009020875570678384,3.4261153495595855,0.05595219768349986,0.021359652808981364,0.00655463059306146,1008.4533882816859,14.74006036889375,48.69966038544431,3.435555808324438,1,39.99071247788176,41.43715361243582,5.66699202397496,3.786079805778179,5.783333333333333,200.0,5.238313024322345,False
2.08,0.23294993630842076,-0.001683076772929066,3.4303763775105978,0.08793082260299255,-0.008444785293555041,-0.0006979087129781811,1008.3536089961148,14.734642474552572,58.042279350888165,3.4382772716807253,1,40.82423468422224,41.91524415055427,5.742726106601935,3.7872936391549636,5.766666666666667,200.0,5.359457326835817,False
2.1,0.23950315249705031,-0.0037785866210225294,3.4341152398144064,0.058036084444612085,0.013577682671114635,-0.015513770772309319,1008.2526906960449,14.729162291475575,44.14982838372869,3.442458934845619,1,41.667339772987994,42.39486322590268,5.81697904232145,3.6383064649754964,5.75,200.0,5.482366863519851,False
2.12,0.2599883418333471,-0.00739374810155249,3.4339269555149765,0.05790091224583332,0.0041758524643934905,-0.0017773097808910666,1008.1506308048804,14.723619664608293,60.58743087197471,3.4437629043261095,1,42.520051598722,42.876012835545964,5.8887808276495806,3.542692905354007,5.733333333333333,200.0,5.607054786737623,False
2.14,0.2675710991309953,-0.0031920182716832605,3.4425833713155374,0.05148748232927905,0.0031785355455159403,0.0026371299485776706,1008.0474209434667,14.718014123512546,56.42551552013367,3.452967528160244,1,43.38244253653049,43.358702077353584,5.959302856816252,3.5095508434705898,5.716666666666667,200.0,5.733536150803428,False
2.16,0.246427853614261,0.008364370762211326,3.465084280771251,0.07191000558714725,0.005437497191231348,0.014553411531219387,1007.9430675293456,14.712346001161222,61.11468866080077,3.473845955505684,1,44.254461359807735,43.84292059869759,6.030400451086437,3.599842151288692,5.699999999999999,200.0,5.861821010204083,False
2.18,0.27072082838696393,-0.0010513736521683668,3.484497473530324,0.06986060312639653,0.015961504799648342,-0.009886969244280263,1007.8375617575224,14.706614803525213,48.407096345608984,3.494998356987925,1,45.13618407304824,44.328678330233835,6.101479250067793,3.5078249268753114,5.683333333333334,200.0,5.991924739120338,False
2.2,0.2748217520908427,0.006507345712307304,3.4792762633309002,0.05841643710410509,0.0007203093042081243,0.007706459949493564,1007.7309014620469,14.700820396921301,57.055352645079,3.490119289873676,1,46.02763124287941,44.81597610690742,6.173076529144058,3.6347217905624425,5.666666666666666,200.0,6.123860400011922,False
2.22,0.26631478295931627,0.014157868323311755,3.453035705204461,0.0628301648714312,0.00013383914073916296,-0.009964271469728688,1007.6230828928446,14.694962561375462,35.01878979101836,3.4633191580151825,1,46.92883671146542,45.304817098753475,6.244883212430376,3.5462915695691706,5.6499999999999995,200.0,6.257641729661498,False
2.24,0.2703890435723129,0.0029242009529155213,3.4744033576286495,0.048104084228818726,-0.007176955931417705,0.01258750356775049,1007.5141011302605,14.689041013109147,43.47738302731662,3.484909966891024,1,47.83984413705272,45.795205751763426,6.314893221414401,3.452302185984461,5.633333333333333,200.0,6.393282879231438,False
2.2600000000000002,0.27148325600938134,0.0018940879508834753,3.5016985944291203,0.06983218241033845,0.008890075836766908,0.0021374336843007725,1007.4039545680055,14.6830556481234,58.13836479045203,3.51220725357851,1,48.76066951947583,46.28714234574878,6.382984881142327,3.357062573401444,5.616666666666666,200.0,6.530796920496165,False
2.2800000000000002,0.27865738847032595,-0.011600270319111955,3.5106787751673254,0.06793154468668978,0.008543747516933427,-0.002070608629544449,1007.2926377993333,14.677006155659512,51.1916843124995,3.521739622520514,1,49.691360667767796,46.78063170509114,6.451199081109888,3.4640137735674443,5.6,200.0,6.670198231618685,False
2.3000000000000003,0.28618656448023344,0.0021221548536807023,3.5226858889721164,0.07473699064817545,0.01056596384638108,-0.005361455862728202,1007.1801489015955,14.67089241403636,40.12409138562644,3.5342924504904074,1,50.63193630209677,47.27567476602685,6.520226983744469,3.439608625087605,5.583333333333333,200.0,6.811500172723092,False
2.32,0.2970196696411685,-0.020028354814246734,3.512739847643964,0.055981714266721556,-0.00584659661414382,-0.005682636835229543,1007.0664842690697,14.664714209861017,40.80848231518561,3.525331623603098,1,51.582429252148714,47.77227426633582,6.59052620374561,3.5284526480389244,5.566666666666666,200.0,6.954716657482761,False
2.34,0.30371435107974093,0.00843356421877855,3.528334362639385,0.06536727193988659,-0.003282297804900366,0.003630122293826837,1006.9516401327743,14.65847132060577,43.09965118374387,3.541391944792202,1,52.54287375295911,48.27043282156514,6.663495475909588,3.7644066671096796,5.550000000000001,200.0,7.099861621893293,False
2.36,0.2865381847755947,-0.0002930006175975982,3.5238738219140027,0.04437653450806015,0.007798773623332153,0.01123629002406253,1006.8356159644208,14.652163699665607,68.3583206399549,3.5355043388397442,1,53.51327697452535,48.77014933142194,6.73348302060608,3.0492891405241576,5.533333333333333,200.0,7.246947974219744,False
2.38,0.321761823161514,0.012866078943023137,3.539227989785658,0.0676698694286277,-0.009221431848562209,-0.003829379567217775,1006.7184059711948,14.645791013989822,47.535680649930576,3.5538473476661627,1,54.49369015540883,49.27142916157264,6.795280223995605,3.130225427577489,5.516666666666667,200.0,7.395990546853052,False
2.4,0.3165401775711323,0.004811525821566469,3.5331724244711236,0.03315152892089775,0.016415127048366583,0.008892560586068625,1006.6000058691278,14.639353012264849,42.822741702844134,3.5473269113292405,1,55.484151959250404,49.77427568761499,6.844775577879776,1.723421994520902,5.5,200.0,7.547003667793364,False
2.42,0.2886892305265027,0.0010139129538604965,3.54622170484961,0.03172399374023146,0.003385827803723746,0.01940303308044492,1006.4804140127496,14.632849586384111,50.48193942783448,3.557953186846046,1,56.48467901783075,50.27868912750966,6.877747298021444,1.5772575769656556,5.483333333333333,200.0,7.700000780890977,False
2.44,0.2913780291114703,0.01735514009678823,3.546435905987072,0.013836534723693823,0.017459326633593075,-0.003889268495728644,1006.3596258904346,14.626280472127576,53.00789699856503,3.5584280225980414,1,57.49531198036951,50.78467305491926,6.910880231948168,1.5562180746470646,5.466666666666667,200.0,7.854996379448186,False
2.46,0.32750261571253797,0.013928596635993074,3.5599925291162706,0.02507999470989767,-0.0024491023682091263,-0.017117312944226356,1006.2376385631806,14.619645490524704,52.67298013041613,3.575052276046668,1,58.51607838081734,51.29222918506555,6.942158424859458,1.5715863327655382,5.45,200.0,8.012004455276644,False
2.48,0.3145100035435734,-0.008376838191347522,3.59041275679858,0.04724522697943,-0.005083386205958804,-0.01154781610100625,1006.1144469001551,14.612944343112247,43.30739525757666,3.6041712609043763,1,59.54702413657464,51.80136180243752,6.975344613870904,1.7460851831430828,5.433333333333334,200.0,8.17103984333442,False
2.5,0.32551732485425217,0.015222784831558802,3.591840936726756,0.024406106558415686,0.0055429404481741615,0.001179078796024276,1005.9900467108247,14.606176782274076,53.80437936136346,3.606593209207886,1,60.58818734244987,52.31207407556359,7.010435956726646,1.762761617971116,5.416666666666667,200.0,8.332117106839261,False
2.52,0.319359223613159,0.010589562080926086,3.6054112837751493,0.02015728894449012,-0.0043672624285548,-0.012020086189527967,1005.8644302901042,14.599342368876648,54.36057515860985,3.619543200143498,1,61.63963555743568,52.82437397043471,7.046979183967985,1.8489012847255997,5.4,200.0,8.495252392316623,False
2.54,0.31186674812913173,-0.0020821059596232167,3.602115148435178,0.02050785921316791,0.01043176940484035,0.017965139304474305,1005.7376111133738,14.592441815955908,23.252373331984472,3.6155910645895855,1,62.70125908370458,53.33824171821882,7.084198763328496,1.8726337779062576,5.383333333333333,200.0,8.660453109305395,False
2.56,0.3407236246779712,0.0006630967149568864,3.62903815854163,0.027870121171225188,-0.0002379535099251728,0.016998245311616075,1005.6095646193022,14.585473766653706,45.6509007758487,3.644998077401712,1,63.773266668662856,53.853706534636686,7.122971438248433,2.004615089705411,5.366666666666666,200.0,8.827742245436028,False
2.58,0.32459243055103804,-0.002089736564090541,3.6115716474407678,0.037963476518102515,-0.004422336669021274,-0.011809210572713039,1005.4803086027149,14.578439168656985,52.88660082574707,3.6261293933846264,1,64.8555125143078,54.370743097740174,7.161014341846477,1.9340446036664336,5.35,200.0,8.997125422510146,False
2.6,0.3250049371923829,-0.009824429588704556,3.6244052802275943,0.04849066511452306,0.011040087427427334,0.0010667911418963277,1005.3498250995357,14.571337023412525,63.71226497856113,3.6389611654918537,1,65.94815024422348,54.889372430787986,7.200193043599207,1.9837503782147359,5.333333333333333,200.0,9.168623202308588,False
2.62,0.3493498380967434,0.006615329731666138,3.6343295124983612,0.03306691357956006,-0.0015984071892046895,0.0009816277598229044,1005.2181189783822,14.564167574718226,45.55047720396534,3.651087519819575,1,67.05114235104377,55.40958571951819,7.236402292563933,1.747772688859061,5.316666666666666,200.0,9.342246536385288,False
2.64,0.33316643622315323,0.004738805897954339,3.6547949420623635,0.028744635511495687,-0.006510009595481363,0.014044820854841118,1005.0851808949359,14.556930292469303,59.30535241999809,3.669952097648089,1,68.16457038933869,55.93139262595504,7.271298160031018,1.7418658113363295,5.3,200.0,9.518012474680832,False
2.66,0.3224120083309434,0.006258667174717049,3.6604567943668695,0.03487448274147823,-0.002855069231450469,0.012990490164711646,1004.9510042539789,14.549624795822183,51.93242265503197,3.6746336711919154,1,69.2884929504317,56.45479898391976,7.306586167433713,1.7867081525764699,5.283333333333333,200.0,9.695936916277239,False
2.68,0.3308481801720321,0.006636924596709753,3.6486620221687973,0.029599702548065796,0.0050809542576250675,-0.013541564377790872,1004.8155956523452,14.542251421949231,37.05234209621457,3.663637416435768,1,70.42285816165239,56.979793895868966,7.343904858547179,1.9446492550093888,5.266666666666667,200.0,9.876030161717196,False
2.7,0.35341041562739883,0.0016911036828260002,3.6812625299121717,0.021694144608809834,0.007913875264667624,0.021051434267653973,1004.6789476283161,14.53480974231519,50.48907063340025,3.6981881504110845,1,71.5677319515076,57.50638444229662,7.3839598171369705,2.047942856318222,5.25,200.0,10.058308579142405,False
2.72,0.3383841662769095,-0.02825495903393026,3.676676118971431,0.041975445421138034,-0.006942765232173673,0.0030837895378529557,1004.5410507530337,14.52729922084768,41.236052299040196,3.6923230452537266,1,72.72319679266042,58.03458001997315,7.424458493551792,2.0104771321833015,5.233333333333333,200.0,10.242789449458146,False
2.74,0.36446323384821955,0.0016872554043719738,3.689978929739268,0.03630755953847238,0.006956837958800984,-0.013627494753949549,1004.4019136671893,14.51972030534938,33.17710797387046,3.7079348426823326,1,73.88918379240516,58.56436725049603,7.466232868536754,2.16695990565157,5.216666666666667,200.0,10.42948223361694,False
2.7600000000000002,0.3688625615630816,0.008467556766628245,3.686866593645351,0.039643226711389964,-0.011077737296042715,-0.00429081992409066,1004.2615258081179,14.51207239741882,45.94493289226032,3.7052822521608992,1,75.06578501249264,59.09575673822042,7.512041775014267,2.413742784108269,5.2,200.0,10.618404707469045,False
2.7800000000000002,0.3649365236859313,0.030205244065096216,3.7032702603690764,0.04759319955005634,0.0029831633090974035,-0.010208155568639679,1004.1198838927146,14.504355294813763,36.63659567797478,3.721330628205864,1,76.25303156711114,59.62875010477528,7.560370467155811,2.403147030308495,5.183333333333334,200.0,10.809571608179324,False
2.8000000000000003,0.3630517260379614,-0.003652365679664212,3.7036897838794687,0.05441972427645385,-0.007010265438884723,0.012279971880158308,1003.9769852024933,14.496568825758914,50.50444294002239,3.7214429877088464,1,77.45094988324075,60.1633482349611,7.60872075180676,2.431683608591621,5.166666666666666,200.0,11.002997452898924,False
2.82,0.3549229774752062,0.005556667973609387,3.7102521000326063,0.08307194060166787,0.00200421905591125,-0.00544710088716108,1003.8328219774166,14.488712543431461,52.303083711166,3.7271935611523044,1,78.65960870285573,60.69955792178114,7.665964567558145,3.7688526079001305,5.15,200.0,11.198698928542234,False
2.84,0.3494355811998592,-0.02021071505832152,3.725566262164392,0.0736391080365166,-0.008980343434082742,0.005972208190660402,1003.687398563913,14.480786660456204,48.72151994231505,3.7419724307093993,1,79.87897531442977,61.237371315254165,7.742722686000907,3.906825773916612,5.133333333333334,200.0,11.396687491102766,False
2.86,0.3633819595898515,-0.018604846622282192,3.726285243210908,0.06385625289482375,-0.012437329797157589,0.01097292047953705,1003.5407072519814,14.472790732129226,61.603906623248875,3.7440077861356778,1,81.10911813396153,61.776795160548964,7.824137662751314,4.234127636990324,5.116666666666667,200.0,11.596979890239856,False
2.88,0.38565776738528296,0.003583202209064395,3.732382106697799,0.05367419170794037,0.002284055419510683,-0.004765544507326972,1003.3927450179398,14.464724568813494,65.87030616367039,3.7522554474982877,1,82.35006633638233,62.317830512202455,7.907605857860835,4.112649527339698,5.1,200.0,11.79959087261243,False
2.9,0.3973536709393272,-0.011156108202980675,3.7428357584722756,0.07282436097504098,0.004865760589133132,0.0004954301340427973,1003.2435085558286,14.456587965176084,58.98631639871023,3.7638854809170175,1,83.60185151137236,62.860478475675684,7.99157890765549,4.28372334066885,5.083333333333333,200.0,12.004535238309007,False
2.92,0.377409902298242,-0.0055979647997483235,3.7479415114935155,0.07228409060592814,-0.010992178283590733,0.007050866071724521,1003.0929914402684,14.44838054546318,51.4942412375093,3.7668999382966044,1,84.86453146720362,63.40474453743368,8.078078882597536,4.365595050434583,5.066666666666666,200.0,12.211829481263472,False
2.94,0.41035568526018584,-0.0030778543306082826,3.777848077666608,0.06499626303045843,0.01041274083354991,0.004118914900706053,1002.9411918299024,14.440102183525312,67.79877344605185,3.800070704545104,1,86.1381256114907,63.95062774617027,8.165248019052072,4.351252775734135,5.05,200.0,12.42148773250772,False
2.96,0.3984805841662826,0.002566798804225179,3.786566898970431,0.07132470599753779,0.002249231965683029,-0.004187332576316498,1002.7881120781342,14.431752981735201,51.028312343833406,3.807477149608668,1,87.42261819458844,64.49812250531217,8.251971332898052,4.321591018659126,5.033333333333333,200.0,12.633522357023145,False
2.98,0.4074929512565424,0.0008349196497230383,3.797994217766617,0.08473649140381823,0.004189491819896434,0.004290426658248655,1002.633732644351,14.42333184794262,57.58875502505715,3.8197920467746993,1,88.71817723959913,65.04725007993765,8.338382204674964,4.319634851997994,5.016666666666667,200.0,12.84795605636475,False
3.0,0.40718109193154906,0.006226431211967425,3.780925523764088,0.08334935283302146,-0.007640209523467017,0.009468560521363347,1002.4780530851041,14.414838731143504,67.04198775100015,3.8027927929776757,1,90.0248105933079,65.59794779841557,8.426942219346307,4.530451371928127,5.0,200.0,13.064778589567593,False
3.02,-0.18532813718208047,-0.011374307868537247,-0.2528761562483402,0.06657814884777193,-0.0009311559431031278,-0.010836135708460459,1002.3220550015809,14.406327165787388,62.09592325531463,0.3137231960021497,1,91.33428218655246,65.3496898125851,8.517916532230418,4.566727930065581,5.0,0.0,12.964443435367036,False
3.04,-0.19748414777501436,0.0008743933198150067,-0.24335409168390298,0.08963057403363765,0.0030356205189040427,-0.0025574374869228823,1002.1666684622571,14.39784790097417,58.43222109252954,0.31340384031692864,1,92.63878446551612,65.10183266747987,8.610741803355674,4.830840774420943,5.0,0.0,12.864672037370587,False
3.06,-0.19827301885722276,-0.01706521311703988,-0.23906415156394037,0.09264989023922089,0.00012567279381520675,0.020012400479922015,1002.0118898564115,14.389400751904589,53.81182054420712,0.31105478628124866,1,93.93834586083409,64.85437258697641,8.707528583848362,4.847810539094235,5.0,0.0,12.765460718160043,False
3.08,-0.1941680610612679,-0.007106748412350776,-0.23538993157858762,0.07155033944222469,0.0008167391685451047,-0.006706023016862207,1001.8577202579097,14.380985789350973,50.709103396658804,0.30522149612676513,1,95.23295548446738,64.60730849523586,8.80462762421431,4.862004234971424,5.0,0.0,12.666806937001862,False
3.1,-0.1938818774524977,-0.009495797806156383,-0.2305715729366004,0.08996665430624613,-0.0010742638321143804,0.004329993997709118,1001.7041577963578,14.372602923337638,72.89349089034387,0.3014027253143852,1,96.52262717882078,64.36063788958536,8.902842537365137,4.958842253404589,5.0,0.0,12.568707577571589,False
3.12,-0.20011872588455182,0.009376340526041561,-0.24243420747641012,0.10237338031124961,0.00946138349280982,0.0077613410201288705,1001.551202473078,14.364252165990706,54.26062152233112,0.3144992291978341,1,97.80735907835603,64.11435968256059,9.002363005757463,4.993082129159476,5.0,0.0,12.471160114257971,False
3.14,-0.2168782649495107,-0.005821441409562814,-0.2385567142610335,0.10223054949647173,-0.0046713201088055415,-0.008870196424675967,1001.398850821022,14.355933339999808,48.54279565955769,0.3224583335977155,1,99.08717846156645,63.86846981943492,9.10178128946567,4.949048815636707,5.0,0.0,12.374160848861507,False
3.16,-0.2146024025988409,-0.01311804526001153,-0.25685774538085276,0.08018761833187975,0.0005753710763097395,-0.0071353096602619105,1001.2471033103899,14.347646482943958,41.37903845354563,0.3349659321106755,1,100.36207954707982,63.622967192864586,9.204198304401551,5.157568798590948,5.0,0.0,12.277707290988154,False
3.18,-0.19140612317531097,-0.00536779935301064,-0.22051404073773198,0.07857868670010741,0.011459572686933284,-0.0035370975876675937,1001.0959644763616,14.339391854400219,44.439088051764045,0.29204718697734205,1,101.63202239996534,63.377853275603485,9.306936526687288,5.117015986427726,5.0,0.0,12.18179799387175,False
3.2,-0.19560226597726696,0.012959043036369874,-0.22088830510280008,0.08385511836752359,0.009292127688021453,0.015668518551073735,1000.9454244968158,14.331168929739874,45.91935995884382,0.295330029937776,1,102.89708773232726,63.13312032732838,9.408085145894377,4.998066951616453,5.0,0.0,12.08642783745024,False
3.22,-0.19946743260279295,-0.017761490853146107,-0.22053822850866758,0.08491846343538013,-0.01231720723358509,-0.010362445726896279,1000.7954795862055,14.322977513826288,46.053450714271634,0.2978923252791475,1,104.15730556518851,62.888764492240966,9.507804686578696,4.973722026241643,5.0,0.0,11.991593296987446,False
3.24,-0.2192461558100371,-0.001112918800652095,-0.23042729807126022,0.07536918523457917,-0.0050574220184513565,0.02455099077837835,1000.6461343003301,14.314817867148065,55.49751944115139,0.31806737513010874,1,105.4126358233742,62.644787253415316,9.607043980903628,4.951061767081142,5.0,0.0,11.897292985517455,False
3.2600000000000002,-0.22408609183687067,0.011166733757628413,-0.22475854783509436,0.09188562619166712,-0.022445395945938276,0.027066402127244867,1000.4973967046518,14.306690442061893,50.177739457165586,0.3175778287640316,1,106.66300891355732,62.401192364636,9.707074565007344,5.051961904344852,5.0,0.0,11.80352640308138,False
3.2800000000000002,-0.22078501426131472,-2.0505138216199656e-05,-0.215263719853009,0.08091232435908449,0.003727858579013383,0.0013031695857134485,1000.349245903918,14.298594108317673,50.13839046245446,0.3083577338543406,1,107.90859872035989,62.15796483273354,9.808476710093593,5.088230254138063,5.0,0.0,11.710285691143438,False
3.3000000000000003,-0.2232228235245996,-0.008366644374238758,-0.22207294105763492,0.09240501043450365,-0.0011911586495687327,0.005244554599648819,1000.2016912519564,14.29052938846371,68.31391814783062,0.3149838421734793,1,109.14932485173502,61.91510954463009,9.91035400433453,5.144767315943201,5.0,0.0,11.617570838241491,False
3.3200000000000003,-0.2121577131600612,-0.004911554431932233,-0.22603353086368919,0.09849851649471003,-0.006968209550047655,-0.023239262211452904,1000.054732200913,14.282496263970927,46.539989048078525,0.31004221598832465,1,110.38519015832125,61.67262467333946,10.012816816417708,5.1005465739100355,5.0,0.0,11.525379203392449,False
3.34,-0.21226548034915282,0.008288864628720834,-0.2082815841493708,0.10813641688344147,0.0010585494819945758,0.0013064512302215089,999.9083659842737,14.274494594956195,38.47442957488114,0.2975005171767963,1,111.61621616058416,61.43050700427832,10.130796325521164,5.958255442089275,5.0,0.0,11.433707624457641,False
3.36,-0.2301925710421276,-0.0031040949659337973,-0.21454828892292913,0.06968173064083592,-0.001835158526681728,-0.0024213578351719336,999.7625918614186,14.266524352196768,47.4595196609735,0.3146890901323069,1,112.84240735433963,61.18875471113594,10.237937477680914,4.109787000102482,5.0,0.0,11.342553497474496,False
3.38,-0.23074792501711358,-0.002939848630216081,-0.20492616017675325,0.038365046860600174,-0.013287072184660981,0.005460399563868987,999.6174091261262,14.258585508291276,47.461726703968026,0.30862271260304286,1,114.0637679551894,60.94736594686001,10.306888208800553,2.5236455905284685,5.0,0.0,11.251914226955899,False
3.4,-0.21723002984159778,-0.013959005072720904,-0.19423398376553838,0.030445697342533426,-0.014986911536897083,0.0074955690416640686,999.4728175591455,14.25067806241259,58.00908023061077,0.29173717647401937,1,115.28029809036796,60.70633918387137,10.357009704911729,2.4891571323368478,5.0,0.0,11.16178735517247,False
3.42,-0.21768049953153323,6.190881751056736e-05,-0.20882345394745003,0.035296699568779455,-0.00024551021153264996,-0.008073559971823881,999.3288199078667,14.242802175956058,38.93388830700506,0.30164886644498157,1,116.49197292983588,60.46567473853095,10.4058271120313,2.392842722242228,5.0,0.0,11.072171140074097,False
3.44,-0.23782996803394008,0.013048678631894545,-0.20879510759665082,0.03590177536005988,-0.009889789876209618,0.00030103082109587194,999.1854056889734,14.234957286572296,50.94910927439282,0.3167471525765629,1,117.6988789888753,60.225364670582806,10.454695335167695,2.493818575028185,5.0,0.0,10.983060712201123,False
3.46,-0.2135191964983245,0.010523874435366436,-0.20471851212568995,0.047090391499940744,0.012264961578933425,0.005951355228455127,999.0425787195695,14.227143613987494,58.72923295810457,0.2959913316524282,1,118.90098246346524,59.985410003775044,10.50515610413182,2.551635124155673,5.0,0.0,10.894454639375532,False
3.48,-0.22620125175718836,0.012658123042698212,-0.18164994764715325,0.035541394547838154,-0.02238581328430008,-0.023778915942466422,998.9003404724874,14.219361249713643,41.0861981463817,0.290385843070382,1,120.09826927482544,59.74581036265228,10.556378953532283,2.570453816776073,5.0,0.0,10.806350959877127,False
3.5,-0.21817682567984936,-0.003240303932800598,-0.18995234847609935,0.04279460000525441,0.005793272725393456,0.0007521401720378267,998.758687389859,14.211610009964375,66.08572165918986,0.2892983261702317,1,121.29076769779263,59.50656210341298,10.60355526093038,2.315404955986252,5.0,0.0,10.718746497004497,False
3.52,-0.23166463840588902,-0.01940411159457259,-0.19182310915013753,0.04511816597173729,0.004095720748710815,-0.0060601818055592,998.6176168630284,14.203889762773429,64.18508104989687,0.30139862215765273,1,122.47849803486079,59.26766224652101,10.65106298706709,2.4338632636552697,5.0,0.0,10.631638347560147,False
3.54,-0.22394487829943388,0.0016560843512299936,-0.18866800893166422,0.03241461550675551,-0.00047465995800860473,0.011946102625926767,998.4771304071597,14.196200601788917,39.50130158956668,0.29283044364643024,1,123.66144587862524,59.02911042242549,10.698644189129519,2.324927688758683,5.0,0.0,10.545024598796019,False
3.56,-0.20143248957804383,-0.018488915697928175,-0.20578003321964472,0.02410158936051026,0.0013800910682865847,0.0012051276191980833,998.3372254447708,14.188542396618345,61.384687134050495,0.2885520922349583,1,124.83963128948345,58.79090365828578,10.747828390094568,2.5666255879797393,5.0,0.0,10.458902382970399,False
3.58,-0.22571572743198326,-0.002682110724688192,-0.1966754820182403,0.04537607391792062,0.0035253522461790266,-0.004578204246041929,998.1978999027738,14.180915044379958,55.55396017074101,0.29939276637085943,1,126.01307009539313,58.553039482050146,10.793466898041363,2.324676226470571,5.0,0.0,10.37326903651682,False
3.6,-0.23386389774912425,-0.0002598937757182797,-0.1670009261658638,0.012681719315714168,-0.00027911484879225985,-0.0010843774204113007,998.0591545399782,14.17331859715921,41.42068839092245,0.2873703178051689,1,127.18175428319522,58.31551689885293,10.826417500348018,0.2987893182078942,5.0,0.0,10.288122460024548,False
3.62,-0.2098232032312002,0.0110718401828514,-0.1830326480441807,-0.011002807754495397,-0.027062645682236923,0.0019484082938020094,997.9209881704647,14.16575300052699,47.97741618872488,0.27865626228258555,1,128.34569222661838,58.078333894469154,10.833165153647446,0.3758433169339355,5.0,0.0,10.203460189553915,False
3.64,-0.22505633808988768,-0.0068087866260477655,-0.18113202331784098,-0.005609747030590453,-0.009395058574030245,0.0007218982756845098,997.7834002060573,14.158218232721822,64.86220192738797,0.28897322498972766,1,129.50488727356242,57.84148849894394,10.840446224698084,0.35327597507366076,5.0,0.0,10.11927979780297,False
3.66,-0.2250051317220423,-0.004128232836139079,-0.1834457615210716,0.0020673098501192873,-0.0006559430436745634,-0.00888798609827431,997.6464013879086,14.15071489246327,60.7179339582371,0.29033893818716233,1,130.65924731334124,57.60498592273482,10.849691428788917,0.5711271195781057,5.0,0.0,10.035581467367376,False
3.68,-0.20699475778317994,-0.0009743542707954627,-0.18116561327488773,0.019084187637788633,0.006537503875326512,0.004812895430970482,997.5099663629821,14.143241601506872,62.608851797590205,0.2750795494929213,1,131.80898438355626,57.36881014005987,10.859756875845669,0.43709354459745386,5.0,0.0,9.952357691631104,False
3.7,-0.22997011099074596,-0.0199787320218662,-0.16387112497438994,0.005932809761913373,-0.0004133647508952625,0.018474141527037437,997.374109669378,14.135799166371669,53.547032304200684,0.28308858557467426,1,132.95397440435602,57.13296822995862,10.868863421281883,0.4734511643374877,5.0,0.0,9.869609370923005,False
3.72,-0.23507148530096572,0.01707046713744886,-0.15536331832585726,0.013580034792534428,0.0009731771790832376,0.006782333863985974,997.238824758805,14.128387238554353,59.78585004587806,0.28229021366514734,1,134.09427099163867,56.89745493203087,10.877327898679047,0.3698464584673754,5.0,0.0,9.787332951345768,False
3.74,-0.25154182412995973,0.0073703216716624635,-0.1885174881251126,-0.019316691688738855,0.0005545368147859236,0.0006475250961862598,997.1041122465786,14.12100586189581,35.83285159187942,0.31443036471876146,1,135.22986740064704,56.66226938937136,10.88069060323607,-0.1689052947366231,5.0,0.0,9.705526480317879,False
3.7600000000000002,-0.23691696407217247,-0.0027996798438632044,-0.16535094034330133,-0.004639961984234349,-0.0024271183956226655,-0.02136209045691105,996.9699719460234,14.113655036261946,40.20818677242944,0.28892632200063945,1,136.36076365200697,56.4274101164763,10.877077416572028,-0.19220141784317185,5.0,0.0,9.624187793198324,False
3.7800000000000002,-0.22313074396790464,-0.014133336384299266,-0.16655922250745564,-0.01998555920837143,-0.002994653510851545,-0.013717452027873958,996.8364053908788,14.106334855768694,34.04538014770352,0.2787993090079502,1,137.48694526635103,56.192876614820435,10.873116742242333,-0.2037881505640262,5.0,0.0,9.543315086398755,False
3.8000000000000003,-0.22888207093335033,0.01108564691139753,-0.1782841151636328,0.0019353861363446178,0.00535506326033632,-0.0072039197410954945,996.7034085454017,14.099045109241672,57.6373129766806,0.29033621834325607,1,138.60844473205438,55.95866534879899,10.86786540931322,-0.3200249793221218,5.0,0.0,9.462905492592773,False
3.8200000000000003,-0.23063084816341725,-0.009476878380730564,-0.1672421651835607,-0.008652796110166212,0.008903894888867664,-0.005045878977572916,996.5709823856284,14.091785860119444,40.88838742674434,0.2850444547148844,1,139.72525228932037,55.724775544913314,10.861726813502365,-0.29416919077498993,5.0,0.0,9.382957138113719,False
3.84,-0.2375809349986116,-0.0002903205658664698,-0.17700621105734496,-0.019647984404869968,0.002426288542984222,0.0017376343175724185,996.4391250891852,14.084557018398755,47.888210676209155,0.2962701195087396,1,140.83738178480755,55.49120479098375,10.854961981671611,-0.38115460523699096,5.0,0.0,9.303467586570298,False
3.86,-0.23115124864373268,-0.008241686335424261,-0.15593585277312189,-0.01159452113858812,0.015144553950690006,-0.004693573089299481,996.3078354390215,14.077358527186163,48.83458538229942,0.2789530701090938,1,141.94484197135532,55.25795117219222,10.846996395023215,-0.4149907014975536,5.0,0.0,9.22443459022605,False
3.88,-0.22141578412541724,0.011642166276439027,-0.16799351013581068,0.04058745617837719,0.003147633185662885,-0.0014572783094626788,996.1771119530015,14.07019031498453,43.12316048695662,0.27817675845266504,1,143.04764384853735,55.02501257471055,10.867192556928515,1.8709943327039493,5.0,0.0,9.145855848187539,False
3.9,-0.2285606090449888,0.00941321102028369,-0.16449384884675994,0.03519444017056762,-0.004152344926150129,-0.014001402437592072,996.0469511917541,14.063052202881977,59.453166353265054,0.281756609251938,1,144.14581494123826,54.79238571242387,10.905016290738184,1.9111405083220345,5.0,0.0,9.067728673249277,False
3.92,-0.23355039356866444,0.0037373377372750625,-0.1584578830723683,0.03585417009052241,-0.0016054584492121574,-0.004038250889657788,995.9173564185589,14.055944379485481,63.814239009057985,0.2822563635017232,1,145.2393262330044,54.56007111751168,10.943975198072675,1.9840596791644025,5.0,0.0,8.990051708804575,False
3.94,-0.21903961693032958,-0.006714976983782927,-0.14910409148635895,0.02652053566063078,0.0014887646595645734,0.007992808651529463,995.7883264796012,14.048866791138664,31.46025235583888,0.26505749338370116,1,146.32818597866464,54.328066887773126,10.983833907089666,2.0015092363531335,5.0,0.0,8.912822767096621,False
3.96,-0.2278847560085818,-0.014103664344095506,-0.1367730991604427,0.03211453892532014,0.010301617792061716,0.020503361156684555,995.6598616765128,14.04181946396767,57.341498292053174,0.2661526930597811,1,147.41239015881894,54.096371890464354,11.021547598047292,1.7703215842749787,5.0,0.0,8.836039936867696,False
3.98,-0.21573860860951338,0.024362907869826155,-0.1623881930161223,0.03558235582931718,0.0024703815050963634,0.012112068323496593,995.5319547413665,14.034802008751171,48.85055853668224,0.2711210500047605,1,148.4919986536633,53.86498082605382,11.056978518884451,1.7727319718392898,5.0,0.0,8.759699907549226,False
4.0,-0.22121292315456698,-0.011813368077537387,-0.1423652939825512,0.05810609036329803,-0.027713734515738466,-0.010945691520146654,995.4046129926411,14.0278148364539,41.981543088183855,0.26332981214944495,1,149.56694823785946,53.63389647983161,11.099019946174382,2.644938346432379,5.0,0.0,8.683802125113372,False
4.0200000000000005,-0.22463678988775035,0.015252504153632005,-0.15591330799714456,0.03861002767774132,0.02537998293586379,0.006621083453077226,995.2778269113372,14.020857434162622,54.82786646258193,0.273867277827495,1,150.63731782113496,53.403112336007844,11.152143842607213,2.666475272066378,5.0,0.0,8.6083429046828,False
4.04,-0.2216767393706228,0.006019907865728139,-0.14883849953322453,0.04788678934864986,-0.009121452125325648,-0.007380015919622399,995.1516122895059,14.013930677872452,33.22592245491322,0.26707623445751316,1,151.7029726350045,53.17263576001634,11.202989854026534,2.4183571333201965,5.0,0.0,8.533323235343238,False
4.0600000000000005,-0.2356070402631681,0.01674580781874133,-0.15909225824059683,0.05424547053451947,0.0013101789607685057,0.003089920323408141,995.0259442321054,14.00703321061377,55.153815980461594,0.284783156336826,1,152.76412144403915,52.942451821197665,11.253167347690665,2.5909100149542725,5.0,0.0,8.458736659076076,False
4.08,-0.22450280591032726,-0.006111660651439904,-0.1563504054775208,0.05254563069897902,0.008234763196957625,0.010704702979458778,994.9008335924539,14.00016563721988,53.06375433727058,0.2736499799936291,1,153.82067119694167,52.712565300429794,11.303274131216304,2.422947771546817,5.0,0.0,8.384583326673186,False
4.1,-0.2306508618011581,-0.013067021682203143,-0.17375416262112445,0.06298907739057472,0.021170144212492113,0.005267170549085928,994.7762825211146,13.99332808494546,52.1330356439656,0.28906932755556797,1,154.87260231607974,52.482976070506645,11.355265447873343,2.6909985011502027,5.0,0.0,8.310861749077175,False
4.12,-0.23687309201728232,0.008158966434233448,-0.14094984527790266,0.0393225646331831,0.011948005014680747,0.003410465167404543,994.6522872342393,13.986520355221217,47.64855397373093,0.27575766415272585,1,155.9199453505794,52.253680803032154,11.40968547721277,2.751141823667473,5.0,0.0,8.237569391549266,False
4.14,-0.2140000892414308,-0.008922807618391855,-0.1387346986200655,0.07679118584749312,0.007553684402535399,-0.00022265660063456328,994.5288447117184,13.979742291294372,49.874499736726506,0.2551920282695672,1,156.9627244162532,52.024676632563796,11.4699377756507,3.6830040569935236,5.0,0.0,8.164703892649475,False
4.16,-0.23811479872811706,0.0006526948930817533,-0.1519804350800047,0.014831248715835892,-0.025389590740573273,0.01122616698059868,994.4059558768744,13.972993952869672,46.95662167199875,0.28248386862095803,1,158.00093032774345,51.795962839020284,11.520585623650087,0.21176020808169235,5.0,0.0,8.092263607307705,False
4.18,-0.24388450451847696,0.010024923867346935,-0.140099859719,0.011191247084928569,-0.004539800699505772,0.000632684836403246,994.2836203566534,13.96627532843496,49.127082165644744,0.28143937417506565,1,159.03456485615936,51.56753795910745,11.527834361448084,0.511742782061206,5.0,0.0,8.020246657749803,False
4.2,-0.22667545669126143,-0.011711199844759282,-0.14003242718735567,0.006124803623375332,-0.0015131953502776282,0.007190811525630718,994.1618376978215,13.959586402028833,40.38090903431049,0.2666983230768013,1,160.06363045710617,51.33940051106996,11.538373676424763,0.540500742163829,5.0,0.0,7.948651171374398,False
4.22,-0.22777780061289457,-0.008853900123365477,-0.13942850663484338,0.017031758682295655,-0.007593968271691576,-0.0052905983265249795,994.0406220461728,13.952927959615067,51.61726941109739,0.267210453504096,1,161.08800621306278,51.11155662597962,11.549918903854627,0.6138849366960478,5.0,0.0,7.877477727387274,False
4.24,-0.2399854443492592,0.0073242649165852465,-0.14196863975575516,0.005958508680747151,-0.004289677510928558,0.007605814084615327,993.9199418561801,13.94629827720587,46.98824792221972,0.27892965606076936,1,162.1079573529471,50.883988504493736,11.561468064629858,0.5415388649928999,5.0,0.0,7.806719236891816,False
4.26,-0.2399094820743852,-0.0043918956901232604,-0.1366225082802919,0.020719507536673183,0.02473647820202556,0.005350424093723358,993.7998130022933,13.939698235540959,36.70258831234705,0.27611873914269397,1,163.1233483783177,50.65670337447518,11.572549921523741,0.5663263236347676,5.0,0.0,7.736376664303456,False
4.28,-0.24185587443522252,0.0018771195547842194,-0.1174791823966486,0.05415961002796088,-0.013544620451758764,-0.012234513277875234,993.6802348903965,13.93312781072757,46.490336740427395,0.2688850049244734,1,164.13418296499233,50.42969961995632,11.604945957705409,2.5767992144661713,5.0,0.0,7.6664481410668,False
4.3,-0.24033156646311749,0.013032922834897995,-0.13156023767202263,0.040340028945538176,-0.002787119392267162,-0.003953313434771874,993.5612016752416,13.926586690248655,54.75696837472864,0.274294030289679,1,165.1405091925126,50.20297299948839,11.655648553705872,2.4951837215535044,5.0,0.0,7.596930983631519,False
4.32,-0.22593619086715414,-0.000389076941985005,-0.11278397027015796,0.025513080705765967,0.013830130861234271,-0.005857664342166597,993.4427216131432,13.920075336448633,51.767582242184616,0.2525223508411201,1,166.1422559309752,49.97652638865684,11.705629022268408,2.502576642881991,5.0,0.0,7.527824766903002,False
4.34,-0.22623084604878585,-0.0028667897180246014,-0.12374572351981439,0.039223475506316816,0.00255171878249513,-0.012741674845650785,993.3247925126769,13.913593637546796,56.44172173425496,0.257879076849362,1,167.13944037741302,49.75035770840425,11.758692283076945,2.803739530317149,5.0,0.0,7.459127501567268,False
4.36,-0.23614877979956536,-0.033956121930802316,-0.12990111109369698,0.04854105798638271,0.004353183898198947,0.0154257938505687,993.2073996753242,13.907140794156874,47.29029694506735,0.2716497065722327,1,168.13218551432507,49.52445804892151,11.81455936703006,2.816665344773524,5.0,0.0,7.390835099103228,False
4.38,-0.24704025028833623,-0.004660394782060723,-0.1248418376147289,0.04483170012205799,0.00012243362217956698,0.0027792423999504663,993.0905516350416,13.900717283771769,61.772509028218536,0.2768322397429006,1,169.12041788126552,49.29883061898954,11.870042485449734,2.6960245884634,5.0,0.0,7.322947265516059,False
4.4,-0.23869472954446666,-0.0189873038683327,-0.13337274662789111,0.04685867663889853,0.0018538697866202836,-0.008602162437747266,992.9742478823397,13.894323086809266,46.269958447610136,0.2740875428828573,1,170.1041404908848,49.07347392954493,11.9223194654217,2.532854434943591,5.0,0.0,7.255462247242577,False
4.42,-0.2469010030588805,-0.004942832958091244,-0.12404356179367826,0.0395459365674652,-0.015612486697158477,-0.002456249649551812,992.8584896195852,13.887958277768803,53.56694142679903,0.2763536540948843,1,171.08334188172066,48.84838734414299,11.973756935960717,2.6109037843266885,5.0,0.0,7.188378562828014,False
4.44,-0.2264900496846325,-3.114550678718042e-05,-0.11450589970190614,0.047592052011389455,-0.005519600618886038,-0.010351719137090163,992.743272237543,13.881622611550256,37.60860301253049,0.25378996166659723,1,172.0580597615004,48.623567368795605,12.025160780848875,2.5309475559220584,5.0,0.0,7.12169386600675,False
4.46,-0.2321410902821656,-0.009392026642359823,-0.13362247092857293,0.022231784654088604,-0.0031391778520303273,-0.00042280005251554836,992.6285968967646,13.875316160240516,50.327293905494386,0.26801615753327385,1,173.0282830399247,48.39901341467968,12.075673798166775,2.520444224523758,5.0,0.0,7.055406713747048,False
4.48,-0.2363808209849118,0.01036958769724488,-0.1145469594139951,0.029587819474832484,0.004425656418024149,0.0012154596413090062,992.514464781792,13.869038997233702,67.71051098991836,0.2628772085775091,1,173.99400042558597,48.1747247794578,12.127905110279888,2.7004352753602894,5.0,0.0,6.9895156359038495,False
4.5,-0.24380711015154988,0.006774606178487815,-0.1312743658708344,0.05004759040235306,-0.005969386831713077,-0.015170422444505862,992.400872311151,13.862790933749068,42.479967823878894,0.276985128452979,1,174.95524096168057,47.95069858785585,12.183403039127587,2.8493139306407778,5.0,0.0,6.924018514160704,False
4.5200000000000005,-0.24889055674004557,-0.00942495552654458,-0.11718541624197654,0.05808235986740579,0.013460859319012442,0.004138379162925039,992.2878179620577,13.856571894149056,44.60155960695047,0.27525944270969616,1,175.912016284761,47.726932877943405,12.241196157290304,2.9296953930920084,5.0,0.0,6.858913523465519,False
4.54,-0.23720905042919296,-0.01990107224460673,-0.09779445783828028,0.039611336692764565,0.007411372682856819,0.0037596733652706304,992.1753030666629,13.850381959799165,59.916434823761975,0.2573479012268949,1,176.86431387705233,47.50342692621018,12.300361470867951,2.9858818075045495,5.0,0.0,6.794199222558426,False
4.5600000000000005,-0.22712066397385405,-0.0014303437799132075,-0.11897675942168966,0.039361521642238884,0.00524573127987677,-0.005562874305557139,992.0633300273155,13.844221270940295,52.208871845798754,0.2564006848074702,1,177.812112163029,47.28018104275443,12.359736424443144,2.953968857591381,5.0,0.0,6.729874476587886,False
4.58,-0.24520095666863778,0.002789098439703141,-0.09289676342270589,0.06429539552298091,0.01560365627649734,0.01389187952118215,991.9518899182069,13.838089344471996,55.07518182478082,0.26222337210045893,1,178.75548546584486,47.057189534090334,12.41949915868647,3.021073521941722,5.0,0.0,6.665936388554948,False
4.6000000000000005,-0.2617748963118163,0.015512713942424233,-0.10872711892941797,0.07208002512960285,0.01512508249815601,-0.007921998479153342,991.8409923066221,13.831986714789764,59.457040120785976,0.2838808324343393,1,179.6943515708028,46.83445575316091,12.480229884905063,3.050736243005846,5.0,0.0,6.602384747286,False
4.62,-0.23991623206165608,0.004365196187711209,-0.11701558092604618,0.03968077051863146,-0.010675656136821485,0.0007100435748280305,991.7306357292213,13.825913309352813,35.42782335403813,0.2669672255612656,1,180.6287216380276,46.611977817845805,12.541043329131163,3.029044052566015,5.0,0.0,6.539217796092711,False
4.64,-0.255020530772195,-0.024884437444197584,-0.09919687160232062,0.03546834495710252,-0.009947173367132849,0.004099959524842381,991.6208031669158,13.81986819933877,45.346015769968545,0.2747630355013817,1,181.55873856326227,46.389746613704304,12.600558445728838,2.9229937422750374,5.0,0.0,6.476431689720591,False
4.66,-0.24239991024290886,0.01236443988092273,-0.0953340359389304,0.05048880788591166,0.00590351535828897,-0.005324551737207932,991.5115061793534,13.813852028719793,45.637876148654584,0.2607665129339741,1,182.4843032738816,46.16776635672854,12.65953018714114,2.972885746628023,5.0,0.0,6.414026492148707,False
4.68,-0.24123890132974957,-0.004601984915521179,-0.09296326978806807,0.07324564603069364,-0.0041754141040241865,0.006318976365111717,991.4027482762738,13.807864998499952,29.720742931157147,0.2585721472039022,1,183.40538484615826,45.946037537116034,12.730681571889663,4.610379771125145,5.0,0.0,6.352001172559585,False
4.7,-0.260465928202744,-0.0005803693136252967,-0.08583896611638335,0.092670888594959,0.016090771741380995,0.006692967908732243,991.2945166763122,13.8019064127854,54.30123513302308,0.27424653997268006,1,184.32209034070422,45.72455295511673,12.823030424706541,4.624131252443191,5.0,0.0,6.290352499683603,False
4.72,-0.23966258401062945,0.004583258162676492,-0.09527657170455973,0.08287278878603162,-0.013254666503109865,0.02264267921544419,991.1868243687276,13.795976994362832,30.664237274114505,0.25794725341784874,1,185.23430855956042,45.50331751730348,12.914832733515269,4.557933515091244,5.0,0.0,6.229080731955621,False
4.74,-0.22659040506490408,-0.004785800427382842,-0.09867017227836947,0.09254301858335275,0.0024600327398233124,-0.0022053782516439947,991.0796636372679,13.790076326062717,39.17921980658226,0.24718802246599886,1,186.142103682663,45.282326410654974,13.00443157186305,4.403778079122879,5.0,0.0,6.168183348746808,False
4.76,-0.26244784209705424,0.014016702401990254,-0.09457500575659454,0.07566604672708889,-0.008725672908593277,-0.014349289433646328,990.9730295242699,13.784204142449198,33.41546307635276,0.27932019168238836,1,187.04551654627727,45.06157618823941,13.09319127698668,4.471683676120229,5.0,0.0,6.1076582434656785,False
4.78,-0.26365552687763194,0.0031938312430627525,-0.08709106967651843,0.0810901327858545,-0.00997609084905852,0.02145388319385662,990.8669243152821,13.778360576881596,74.78538684178034,0.2776855988857381,1,187.9445266336039,44.841066772816184,13.184243925047133,4.628391124910143,5.0,0.0,6.047504276150325,False
4.8,-0.27531389974093506,0.004968792085889116,-0.08856960016960547,0.09125549699693604,0.001995740258660513,0.015586662615152463,990.761346603247,13.772545559337686,62.92769554715805,0.28925249585709406,1,188.83914471728082,44.62079635525906,13.277207308621808,4.667813003195788,5.0,0.0,5.987719826228309,False
4.82,-0.25170997902362485,0.0015569319739823255,-0.09188033540339975,0.07478181334276025,0.010723899371999999,0.015854686750496786,990.656298485427,13.766759212769841,45.53397912443775,0.26795957458371683,1,189.7293518815645,44.40076483674416,13.370925018321499,4.704109767503943,5.0,0.0,5.928303759128406,False
4.84,-0.25819514105811514,0.010260522946976589,-0.09532950259692864,0.07584136055756441,0.006701575105906236,-0.0004899099151996307,990.5517780363506,13.761001438523294,41.95889261063508,0.2754228081741656,1,190.61516330410475,44.1809701138411,13.466022126004713,4.801917572188407,5.0,0.0,5.869254390768108,False
4.86,-0.2741946065389713,-0.020024904986411816,-0.07500494048027274,0.06872415099517817,-0.012403252777796641,0.0028192453872695096,990.4477853294306,13.755272247999699,51.183782951986174,0.2849726656562439,1,191.4965772308151,43.96141105332299,13.562036947279768,4.799582183904643,5.0,0.0,5.810570316962257,False
4.88,-0.27391995064272884,-0.009694794453335742,-0.0706723829424757,0.06001607759392909,-0.017443656699565,0.005299657957432472,990.344322881439,13.749571787194668,62.814857771667334,0.28305602645125816,1,192.37357120082018,43.74208754484742,13.657783461407918,4.791631526965323,5.0,0.0,5.7522504223450275,False
4.9,-0.25413137521163404,-0.006011739152525932,-0.08908809811527,0.08071135259250821,-0.0034009294391121984,0.0006819465311305643,990.2413815428039,13.743899559254714,40.49829945684367,0.2693614413764344,1,193.24622165312508,43.52299457165211,13.754734222178621,4.9024729898931545,5.0,0.0,5.694292255707648,False
4.92,-0.253902897913324,-0.006939266921834601,-0.06564449242270606,0.0816645671128902,0.00715206642689669,-0.003607660872787505,990.1389677015301,13.738255923374766,64.67557455504952,0.2623433520782088,1,194.1144733269609,43.304133657480115,13.854701207849006,5.085858949074087,5.0,0.0,5.636695170930773,False
4.94,-0.2557248860671016,0.011598604908113458,-0.0725692654200399,0.08639183455807672,0.00196183852568149,0.00693822048512195,990.0370761461229,13.732640599548745,41.09144168280092,0.26607525866463194,1,194.97836930019548,43.08550147042872,13.956332111935948,5.077694291878814,5.0,0.0,5.579457204191053,False
4.96,-0.26502953539844754,0.0028613618319547076,-0.06839409892481113,0.08576950547886893,0.008696086774445118,-0.0006075498260641737,989.9357217175983,13.72705441288781,44.59664389545654,0.27372722698479807,1,195.8377826326483,42.86710335830784,14.05807348006107,5.09568555236837,5.0,0.0,5.522578739584689,False
4.98,-0.27045699609066814,-0.005539655494443779,-0.062451978405979776,0.10705374063694549,0.006200311697591573,0.0170466688588968,989.8348881525351,13.721496474193714,28.08681356654972,0.27762911253001865,1,196.6928501240443,42.648930904614396,14.158802559707363,4.97720365814465,5.0,0.0,5.466056464833554,False
5.0,-0.26187888341436194,0.007702041216414,-0.06948826360296365,0.0721755807152682,0.012087423386478422,-0.0019910234638751525,989.7345663534684,13.71596628897339,45.36658605782272,0.2710507144351538,1,197.54364785024845,42.4309791572093,14.257756742817875,4.917856196755641,5.0,0.0,5.40988803274137,False
5.0200000000000005,-0.2762281748630023,-0.007022222050394709,-0.07414553390048967,0.07922324824496815,0.02245277241042468,-0.0004014517575709177,989.6347666806801,13.71046443526518,39.97532206692473,0.28609242630321247,1,198.39008688228176,42.213251486715265,14.356486635644062,4.9538909612475,5.0,0.0,5.354073322631177,False
5.04,-0.2686617088907381,-0.007036253763655152,-0.06538955764728249,0.09842055006789271,0.00442159655147062,-0.003863307645131415,989.5354971449796,13.704991361720317,47.36238536195942,0.27659431834444026,1,199.2320981968739,41.99575021838186,14.456573940040705,5.052691558685637,5.0,0.0,5.298611922097917,False
5.0600000000000005,-0.2871606542438206,-0.0026807770119227576,-0.07303860971021586,0.07917985518771453,0.0032158762483750093,0.004780161869975266,989.436744491693,13.699546344516307,43.812150643040184,0.29631582208773116,1,200.0697931513405,41.778468476759635,14.557626030309974,5.052516302187886,5.0,0.0,5.243501006260141,False
5.08,-0.2764917234630704,0.01437869192418029,-0.062024188755374854,0.08328170124124576,0.010611002518887299,0.010710658518318612,989.3385079763217,13.694129349428636,32.52673888632726,0.2837277214439785,1,200.90317701098058,41.56140482092862,14.65771120191758,4.957364660723152,5.0,0.0,5.188739201180225,False
5.1000000000000005,-0.276608825460781,0.012247296571975472,-0.074881291428697,0.0777314319872648,0.011891595433402987,0.00365225892834661,989.2407924816725,13.688740652526292,54.15527976000812,0.28682685788144774,1,201.73220730364918,41.3445602129412,14.758431193862396,5.0657918712511405,5.0,0.0,5.1343257631432815,False
5.12,-0.2915347115662017,-0.006418185796914152,-0.07406161548384393,0.07669770309361826,-0.0035881357628580737,-0.01856732014273619,989.1436012272945,13.683380438196025,42.06125972660972,0.300863430886821,1,202.55685566214953,41.1279349323298,14.858053823432893,4.896716840465626,5.0,0.0,5.0802597689392694,False
5.14,-0.2930789175842909,0.01442607086243687,-0.06065950686207794,0.08748539204449529,0.0026118142735118127,0.005564129643188577,989.0469193447931,13.678047893155906,52.73833548607138,0.29963801365257065,1,203.37724720678034,40.911521518649295,14.956271918242907,4.924278734337244,5.0,0.0,5.0265383189457635,False
5.16,-0.2883837495966258,0.013913161368564972,-0.060039919436880994,0.09882086324749528,-0.0022756851549743033,-0.002019818355555332,988.9507573432529,13.67274360370618,66.46918366037494,0.2948958375709367,1,204.1932917375094,40.69532334875161,15.054144314939025,4.8628225869540875,5.0,0.0,4.973161309517742,False
5.18,-0.28855988134441796,0.00042608952749515345,-0.06466301620392068,0.06813262406479491,0.004991860351643748,0.00810696800076512,988.8551096571484,13.667467269517033,40.482747935011716,0.2957165743382987,1,205.00503545892124,40.47933698085649,15.150345976887188,4.757706620690439,5.0,0.0,4.920126896985039,False
5.2,-0.3007008927876177,-0.012969851621049425,-0.0638676514001203,0.09175290149958946,0.008054425808279527,0.007005299086023709,988.7599787243521,13.662219031682014,38.48346413455933,0.307682175092594,1,205.81245666430192,40.26356221571007,15.245085054722486,4.713830367923258,5.0,0.0,4.867434074547356,False
5.22,-0.2992856700416577,-0.006815184957272597,-0.052606205892718166,0.09019254993345313,0.003974672713732081,0.006829325628778688,988.6653672863087,13.656999048052342,41.311032413530704,0.3039502787245192,1,206.61553106887166,40.047999257234544,15.337825260185173,4.560995054711291,5.0,0.0,4.815081936078478,False
5.24,-0.3047588002290414,-0.004594513865472553,-0.06970159207739804,0.07392171190674933,-0.0027707096302400174,0.018071229633010936,988.5712670323998,13.651806866647462,63.256993013452174,0.3126617146579171,1,207.4143282080838,39.832643433004925,15.428194809809478,4.4760834796730595,5.0,0.0,4.763068366492014,False
5.26,-0.2934746475866611,3.182927866537466e-05,-0.046459950609175495,0.07428587738857484,0.0039425882024429725,0.0032957229891381595,988.477680439932,13.646642630627127,33.01159261929222,0.297129427690737,1,208.20882605736492,39.617494719232006,15.518007451091604,4.503304115866355,5.0,0.0,4.711392425764478,False
5.28,-0.295302093712966,-0.005723539860374507,-0.05113365968582716,0.08796780746195476,-0.00906426713186528,0.01005757373321168,988.3846246466488,13.64150729223519,23.479542984035817,0.2997511244560404,1,208.99887811766686,39.40255889121692,15.607941961283446,4.490870672967415,5.0,0.0,4.6600546030849594,False
5.3,-0.2999421204413297,0.006456954849775365,-0.07305962836675724,0.07605976414669677,0.003951686189677584,0.005181877975909469,988.2920792689313,13.636399733094493,62.318919503450694,0.3087793341172007,1,209.78465644700168,39.187826611966564,15.697469703324096,4.461751448709021,5.0,0.0,4.609051659896302,False
5.32,-0.2805811349826135,-0.014392778129017628,-0.04922480394269387,0.0765016414252233,-0.014635784188979224,0.013293090816644284,988.2000317630121,13.631319267181311,58.0864836394877,0.28522974370426263,1,210.56626658749013,38.97329165426006,15.782828787564561,4.073834971111277,5.0,0.0,4.558381168396751,False
5.34,-0.3055006458926981,-0.0029830144985359937,-0.05366495181588858,0.07254122127832406,-0.020403892622679973,0.020103177007064554,988.1084962142238,13.626266678161983,41.789099749711845,0.310192633809631,1,211.34358797507957,38.758958944035165,15.860644729882646,3.4510381814749937,5.0,0.0,4.508043429930673,False
5.36,-0.28588619302706897,0.013469944334390098,-0.04433366968759073,0.05887023813341055,0.010095624863218487,0.0020692503199338072,988.0174719330271,13.621241934267005,48.48760255142774,0.2896166932893381,1,212.11662549737957,38.544826893278056,15.92663165334698,2.963292165148698,5.0,0.0,4.458037158827257,False
5.38,-0.3054946699820131,0.00044093417725158107,-0.05417833157138289,0.045412710830849086,-0.002298859922575409,-0.024718556351423737,987.9269584266898,13.61624501454736,54.68208719848826,0.31026195290790404,1,212.88538237733192,38.33089420643859,15.98533929146306,2.9077083923574705,5.0,0.0,4.408361147547413,False
5.4,-0.288868813802486,0.006890673428182665,-0.05216693593999192,0.04627107565856186,-0.004512284345226032,-0.008009336145583898,987.8369559524893,13.611275939422683,60.887405587904354,0.293622312117653,1,213.6498554734355,38.1171598708157,16.044381569177062,2.996501489558456,5.0,0.0,4.359014264493042,False
5.42,-0.27271732444988744,-0.0007101585016240233,-0.03479284752982849,0.04588562269007617,-0.011943113798067407,-0.003660066277720434,987.7474622651206,13.606334591099312,57.15003459874695,0.27492869188107033,1,214.4100629077976,37.903621842749416,16.103641976068985,2.931852629326993,5.0,0.0,4.309995141720457,False
5.44,-0.3252159923767465,0.0019570314258906393,-0.031019142925236054,0.035954799786964003,0.023438601985347644,0.0076832880397043335,987.6584866369171,13.601421487724451,57.28176242383165,0.3266978097530042,1,215.1659249654697,37.690282823503416,16.16263183853426,2.9668904915954513,5.0,0.0,4.261303537142327,False
5.46,-0.29448861859189246,-0.009339385666043839,-0.03263486353511697,0.03820664212933342,-0.004809558248036387,-0.012163681343655391,987.5700124530297,13.59653571795252,52.73733685367721,0.29643853481410937,1,215.91758185346185,37.47713507429427,16.21763037900484,2.355304051557224,5.0,0.0,4.2129367582871025,False
5.48,-0.32340293450940305,-0.015458672848418125,-0.029948563311664535,0.06346155522500083,0.017266789501656818,-0.0074681632618655795,987.4820441823058,13.591677534560574,49.94686365835639,0.3251543403677098,1,216.6649946829863,37.26417951899295,16.263692896990324,2.251475658085966,5.0,0.0,4.164894165467442,False
5.5,-0.33086951220416944,-0.006430180867456216,-0.03566503009055099,0.028511324763412886,0.002599584770801599,0.00208244015167184,987.3945846849751,13.586847101516184,58.18356484257302,0.33284827730299754,1,217.40813822828193,37.05141600950592,16.3080518215041,2.184308219119282,5.0,0.0,4.11717487150173,False
5.5200000000000005,-0.30681351882346236,0.01628128251599512,-0.033438998397412774,0.07898046958643418,-0.012847135774306162,-0.002492797343230631,987.3076308203678,13.582044251330842,40.43674851587673,0.30905951224161166,1,218.14703825679047,36.838842152136536,16.378689584431054,3.913211466231448,5.0,0.0,4.069777474986606,False
5.54,-0.32452185233102004,-0.003557180679602502,-0.0459985767395445,0.07189461330524377,0.0034053358789442856,-0.0013970617223573263,987.2212036643386,13.577270154162989,34.16559823918185,0.3277849222231058,1,218.88151474415758,36.626465097915364,16.455730992852025,3.791743955683405,5.0,0.0,4.022702765511904,False
5.5600000000000005,-0.326065316545283,-0.007465280311590633,-0.03724486662518301,0.06698277182738138,-0.008465453570276173,0.004644584279994122,987.1352630042549,13.57252259463013,65.29125132241569,0.3282704695123122,1,219.6119085184428,36.41426835112982,16.53285083309005,3.91960140812259,5.0,0.0,3.975946130526981,False
5.58,-0.31007198571396677,0.0028861766962304143,-0.04255328017169539,0.06935392622888872,-0.010787124963376313,-0.0023598631065416815,987.0498273932894,13.567802603391499,32.83322082426696,0.31299161010144516,1,220.33806101668853,36.20225806841524,16.611903618578722,3.984917951045828,5.0,0.0,3.929508157141268,False
5.6000000000000005,-0.31417864500632936,0.003231030653989268,-0.029492870914769362,0.0685554790647451,0.005692200022472634,-0.0023223567620928786,986.9648977900839,13.563110239229047,39.95881404287118,0.3155764407744903,1,221.05996319552722,35.99043342600003,16.69115836029734,3.940909722771408,5.0,0.0,3.883387837095978,False
5.62,-0.3200664882884243,0.010988658813338594,-0.028465990973242247,0.0750052689970157,0.015584088507931745,0.01657055633269891,986.8804712491831,13.55844534518269,44.6176271486747,0.3215176825462151,1,221.7776392026664,35.77879225324806,16.769902547668394,3.9232365043428974,5.0,0.0,3.837583866587999,False
5.64,-0.31338197166990306,-0.0006672033371828639,-0.037244755513243515,0.05131324819887273,-0.006199934539991578,-0.010062593137607483,986.7965476069876,13.553807917938684,54.48558135240076,0.3155881448046652,1,222.49108954789608,35.56733340393185,16.848122103560186,3.8908204880147457,5.0,0.0,3.792095182062323,False
5.66,-0.32122809632481814,0.0008314142567104445,-0.01837664811470706,0.08187311678610734,-0.011316604915137793,0.004133873169350747,986.7131257094119,13.549197899410501,55.710556951452176,0.32175438196559913,1,223.2003231676174,35.35605545871929,16.92463045883296,3.7601127432180617,5.0,0.0,3.7469206664849346,False
5.68,-0.315145161751061,-0.005037903259411444,-0.01539298027886928,0.055605972783741534,-0.001323680033246014,0.004216649012573237,986.630206427979,13.544615343411238,49.54990647819495,0.31556108328851207,1,223.90533178288229,35.14495756910288,17.00007660829857,3.782579234265907,5.0,0.0,3.7020593382109683,False
5.7,-0.3035241051358548,0.001963711430260768,-0.038455412175276066,0.055772050372639936,0.014105377985974825,-0.003265271155347144,986.5478104280634,13.540061397758166,46.668156955970176,0.30595678990124264,1,224.60593880643643,34.93404592342609,17.076230341915423,3.841175131048199,5.0,0.0,3.657511754242954,False
5.72,-0.32478662419725324,-0.0052240571753056474,-0.036523887902812836,0.08257435141072286,0.0025125687139302346,0.006501451389168881,986.465896005851,13.535533763111061,54.40163264436386,0.3268755671786374,1,225.3024979829121,34.723305038768366,17.1536392689065,3.8995920138537814,5.0,0.0,3.613273743324715,False
5.74,-0.31112567614212827,0.003082492324849762,-0.013827795976248504,0.0587444135547959,0.006048029374370811,0.0072587200207081815,986.3844814576078,13.531033456180126,31.129517340006117,0.31144806317488954,1,225.99485289536514,34.51274006524241,17.230803057291148,3.8171594077398647,5.0,0.0,3.569345664389215,False
5.76,-0.3160772775607039,0.010202509920964066,-0.026795993601506522,0.05303638004896688,-0.005401655464294128,-0.008106290683918958,986.3035677523854,13.526560536031923,48.39965740327195,0.31737511224411663,1,226.68299445662907,34.30235037156359,17.30537761370471,3.6391040379268302,5.0,0.0,3.5257266102893983,False
5.78,-0.31228201641077863,-0.0012650365652649008,-0.023274094356174894,0.09509371838439698,-0.014621126591337533,-0.0024672334411022074,986.2231528717349,13.522114896548885,75.4734148588478,0.3131506691022604,1,227.36693899247777,34.092134134238286,17.38996593283597,4.323723358143687,5.0,0.0,3.4824154263237213,False
5.8,-0.32581110979896116,-0.007247691034595166,-0.028939609261347043,0.06530103042480936,-0.005533082613095582,-0.007401001784276856,986.1432386271022,13.51769664330368,46.10187574344014,0.32717412684679564,1,228.04667026097465,33.88209100615986,17.47607017861944,4.287316595788753,5.0,0.0,3.4394112793735627,False
5.82,-0.33131854817757206,-0.008779649540675798,-0.04066096110140314,0.07196761411589218,-0.00038626149685669917,-0.010403021973380826,986.0638260562691,13.513305839084694,37.866612089277844,0.3339197154560375,1,228.72217860235827,33.672220207381905,17.56173581496536,4.280064831627286,5.0,0.0,3.3967132497931063,False
5.84,-0.3378485597313808,-0.0009091940004870477,-0.020208193170508825,0.07896331645300332,0.008652875968684404,0.002704623221829939,985.9849355123602,13.508943614732175,34.28204166274692,0.3384536113229042,1,229.39329004120825,33.46252766107745,17.645414076558392,4.088183181182929,5.0,0.0,3.354321820265084,False
5.86,-0.31128044719355163,0.006385280703045686,-0.007642205365303554,0.06734854344872608,-0.001685770258163915,0.012697194976932911,985.9065161217144,13.504607162502737,55.949957387323195,0.31143970831851175,1,230.0604365380433,33.252994950333076,17.729810920923427,4.358155800969419,5.0,0.0,3.3122323993967195,False
5.88,-0.3465452370784833,0.011323567231478331,-0.02253909651056701,0.09327902012706303,-0.010612983011082431,-0.012895122441936475,985.8285933213048,13.500297894145092,31.069326163576687,0.3474619912855803,1,230.72340090075352,33.04362975879619,17.817733635668425,4.431958069108271,5.0,0.0,3.2704458691136686,False
5.9,-0.3313369248067734,-0.006565594796067989,-0.011361712602387898,0.08900503863649975,0.0013059830847972633,-0.008727015850199098,985.7511743176864,13.496016213466362,42.413755058164064,0.3315966726140279,1,231.38212100517902,32.83443340334804,17.905864841745757,4.381425111312671,5.0,0.0,3.2289617697034645,False
5.92,-0.3357245556370666,-0.01260934328276205,-0.027760894152098113,0.10295853582419714,-0.0021707910293360354,0.0008683286656876203,985.6742458420308,13.49176139183777,65.20563364379055,0.33710627410336397,1,232.0367089480375,32.62540038242595,17.992812901226095,4.311087359193434,5.0,0.0,3.1877782491425086,False
5.94,-0.3286450020822364,-0.021934275843420035,-0.008225564126496911,0.0725017555290731,-0.008538172449793352,-0.0005461987408332877,985.5978173235931,13.487533955935248,40.59939042281388,0.3294788456875608,1,232.6870837022666,32.41653285552295,18.07959477802224,4.366050406278798,5.0,0.0,3.146895032490034,False
5.96,-0.3380448077446046,-0.007329862605536144,-0.00037165292707240825,0.07183625617502896,-0.012157156531081436,-0.0012642250795944676,985.5218836449602,13.483333627848651,50.0497639654453,0.3381244697663878,1,233.3332880232834,32.20782802013724,18.16868485293111,4.547426811399598,5.0,0.0,3.1063108397349,False
5.98,-0.33849695792617807,0.0024864824126762212,-0.011936883585426779,0.09869368034403085,0.002785375652614643,-0.005201271675897147,985.4464403735229,13.479160167449038,42.698830438457904,0.33871649252700603,1,233.97535885399287,31.999283449316742,18.261605666289075,4.743526014775639,5.0,0.0,3.0660244807310777,False
6.0,-0.3295502965233766,-0.006880003800346272,-0.020304365467608512,0.0945985825536519,0.009954391869298168,0.004960377034016018,985.3714930864156,13.475013888297099,59.48587530027899,0.3302468768179049,1,234.61324795429488,31.790899836867997,18.358353372152944,4.928896395085257,5.0,0.0,3.026035398470622,False
6.0200000000000005,-0.3207506525053466,-0.008012010768867648,-0.00640797233179503,0.08163158466962434,0.005874678843350127,-0.020989950791881797,985.2970418913922,13.470894801389534,61.602695624324014,0.32091468571657966,1,235.24695363237532,31.582676303031228,18.45534790328838,4.771033945060731,5.0,0.0,2.9863427220324974,False
6.04,-0.33588091558959643,-0.0007103346357531309,-0.01812271245655659,0.09388408146270963,-0.00395267437871896,-0.009823405683850903,985.2230815764577,13.466802623344961,59.033426692224864,0.33637022272993095,1,235.8765194853895,31.374610071685225,18.54982502487067,4.679277152313128,5.0,0.0,2.9469452170977433,False
6.0600000000000005,-0.310494450922829,0.00896545383647227,-0.002796508737671272,0.09092997343662126,0.0028257971044842855,-0.003587450317601167,985.1496204988493,13.462737821525366,52.95938449773802,0.3106364496923741,1,236.50187361148477,31.16670276944211,18.643874169033847,4.72311266069019,5.0,0.0,2.907842519253829,False
6.08,-0.34362767449562825,-0.014054595971850768,-0.006677930734265528,0.07716905794006546,-0.002762374466159171,-0.002611206232557995,985.0766592406798,13.458700433114586,68.94348174353254,0.34397980334039535,1,237.1230102900633,30.958953535561278,18.737682577571746,4.658197217236823,5.0,0.0,2.8690337767885308,False
6.1000000000000005,-0.34455544406233896,0.0029833485532910647,-0.007755405688782885,0.07311734950050265,-0.0052758906160577925,-0.007913620838946714,985.0041779343708,13.45468936356474,41.290384364329746,0.3446556262691553,1,237.74009791311957,30.751355062885853,18.83218280413334,4.791320780691851,5.0,0.0,2.830516909222635,False
6.12,-0.33171069747944354,0.013537197349945209,-0.008885227165858843,0.09258017589611868,-0.005544581726139366,-0.00718121669672728,984.9321876183701,13.450705228507047,64.3913706712841,0.3321056907012874,1,238.3530417681452,30.54390981057967,18.9285762519952,4.847511387667499,5.0,0.0,2.792291733075918,False
6.140000000000001,-0.3572222881584589,-0.005636961286528639,0.0046615874577640645,0.06192544716313529,-0.0037358876984030613,-0.006661780594097863,984.8606898738857,13.44674812025113,28.215055699313133,0.3572971716755357,1,238.96182765366962,30.33661726070303,19.024633903988853,4.7599892155585035,5.0,0.0,2.7543574903809027,False
6.16,-0.3391896393631968,0.0001683491990393155,0.001838882162163428,0.09508439140277933,-0.002103493911617389,0.015999197347174584,984.7896853032391,13.442818076913284,73.36138956386526,0.33919466576052554,1,239.5664497056466,30.129476605609963,19.122269740587836,5.003899184691615,5.0,0.0,2.7167133723779595,False
6.18,-0.350490557537298,-0.012459230762410834,-0.0025898708244908894,0.08820880656624701,-0.0008406121222171791,-0.0006165825619589596,984.7191670791402,13.438914725327152,44.49341513002359,0.35072150031739513,1,240.1669653342869,29.922484678934545,19.223618829067206,5.129396622440655,5.0,0.0,2.6793581367236454,False
6.2,-0.35341325248378597,-0.004839418419807407,-0.004754464543149236,0.10153585462459476,0.004277091210821842,-0.004307083095011951,984.649141558198,13.435038422030573,59.69822493369956,0.3534783613389966,1,240.76331968760212,29.715642337894316,19.32738382289898,5.491747455570199,5.0,0.0,2.642291303141892,False
6.22,-0.36371229765833235,-0.01562344700224941,0.024319163197646734,0.10145895160115798,0.001014781783690102,0.0011450155520522746,984.5796024836771,13.431188825331901,50.48092516628638,0.364859081376316,1,241.3555653335544,29.50894682754449,19.439505671051922,5.71878036214934,5.0,0.0,2.605511722608085,False
6.24,-0.34369575697237337,0.0019263345095616737,-0.004653937751408621,0.10751556288117647,-0.0018566027103986968,-0.0076937565011430545,984.510554302684,13.427366186030724,60.61246756775504,0.3437326624893966,1,241.94366368757875,29.30239836403288,19.55285576496878,5.616429294942499,5.0,0.0,2.569018805373449,False
6.26,-0.36335414410130584,-0.01046094632761003,0.022492799158725423,0.08678071758120089,-0.004560213427726148,-0.0003688861093856539,984.4419935233038,13.423570315394386,57.25093627811375,0.36419993334383854,1,242.5276437854806,29.095994895600295,19.666019693164955,5.69944100164244,5.0,0.0,2.5328115498841934,False
6.28,-0.3531553810303246,-0.010842389019977078,0.002909623554024582,0.1150505176154699,0.005498685233170483,-0.008505576521985504,984.3739221239672,13.419801327506605,38.587062693948404,0.353333760712956,1,243.10748807590798,28.889736009140744,19.780788462027225,5.766386265682862,5.0,0.0,2.496889260882231,False
6.3,-0.3463811644564473,-0.003543341094204777,0.00919903807331938,0.10312597060119112,0.003619434097140965,0.01389974832658802,984.3063371116046,13.416059061158307,53.26046528738978,0.34652141154305116,1,243.68322136026237,28.683619819329447,19.897753110668887,5.924798261762176,5.0,0.0,2.461250983380277,False
6.32,-0.3500526014052692,0.011318612939525189,0.027016399131002736,0.11470274128908953,0.00361338283517545,0.0017521901728189168,984.2392395607557,13.412343580319487,61.009785478499154,0.35127598917585684,1,244.25483379700404,28.477645577498173,20.0171498223897,6.014457991057086,5.0,0.0,2.4258959750408366,False
6.34,-0.36656989575882254,-0.006558683498946805,0.011619612571390043,0.10681197436198811,-0.002634276817355003,-0.008263300084574503,984.1726300254784,13.408654920118352,45.41993020872258,0.36681265000294433,1,244.82231998179284,28.271812478571892,20.1385184581862,6.119518147003045,5.0,0.0,2.3908234877017644,False
6.36,-0.3505443646471992,0.003036382146402294,0.01749535346611024,0.09708365439978099,-0.002399517803232903,0.0029402355630499468,984.1065127366072,13.404993319285097,63.32832842628334,0.35099381560841164,1,245.38564318690587,28.066120716449078,20.262992356826597,6.327830890857059,5.0,0.0,2.356032953119359,False
6.38,-0.3576279847833469,0.01084101660119206,0.025433333093088546,0.10107048472588902,-0.016737294377449523,0.0021166374354271754,984.0408754972807,13.401358106723194,68.110096553011,0.35869507603725076,1,245.94490665797025,27.8605657919128,20.389241065441247,6.2868024665130875,5.0,0.0,2.321522989240133,False
6.4,-0.36311736011423373,-0.004692111373648397,0.012976994105190744,0.12467651762420362,0.011452747729659101,0.01969834102908526,983.9757251091706,13.39774966344703,49.96492001677556,0.3633794648868851,1,246.5000517773827,27.65514861394285,20.516364618823644,6.411379592427871,5.0,0.0,2.2872931691541116,False
6.42,-0.36684307957542966,0.015534300067025683,0.009215122003642835,0.11743735991488306,-0.002487378636837421,-0.016830592281467452,983.9110587739789,13.394167838770727,41.418889493541066,0.3672874596069126,1,247.05110172758253,27.449867425927792,20.645816947840075,6.533524728622606,5.0,0.0,2.253342606354632,False
6.44,-0.35563756561121646,-0.0041446354150488215,0.012052384455328139,0.1193146166626624,0.008073402021893024,0.006025423257828232,983.8468780493214,13.390612723234653,50.472425043694145,0.3558658680565685,1,247.59804257928536,27.24472162126758,20.776099299476137,6.4956602564086685,5.0,0.0,2.2196706197771046,False
6.46,-0.38268405525755866,0.007897440476523786,0.020005234381694888,0.1206379871959351,-0.0012055942696028363,-0.010684446076846614,983.7831873980623,13.387084568307046,47.97906421943977,0.38328796630877543,1,248.14083564507195,27.039711422366963,20.905342979764328,6.428980690867324,5.0,0.0,2.1862766715577577,False
6.48,-0.38625983850166756,-0.0031009993277395,0.02460210365492028,0.12330544263319423,0.0008832545403431255,0.0002427044155623587,983.7199758988808,13.383582773200146,57.12436612176207,0.3870549606198226,1,248.67957335382488,26.83483281814162,21.033626639342046,6.498123707916723,5.0,0.0,2.1531595166999082,False
6.5,-0.37439202987910236,0.02063707855594686,0.03203353541397091,0.128983150763688,-0.008868279327132361,-0.00562181388074395,983.6572475213435,13.380107561959733,59.54688555627681,0.3763262260850778,1,249.2142212369601,26.630085980379096,21.166355548372785,6.77448038283356,5.0,0.0,2.1203186243347845,False
6.5200000000000005,-0.3850540424696121,0.001234241113695029,0.023011582941828642,0.10874744101256328,-0.011260591740138994,-0.009790459127311137,983.5950028089345,13.376658968823506,67.83575456566908,0.3857430127984242,1,249.7447740271516,26.425469951264745,21.30196075808285,6.785341339676782,5.0,0.0,2.087753278996567,False
6.54,-0.3784907811745158,0.01346030057540998,0.027481654454650558,0.12636223982349945,-0.005601592994842758,-0.002130583695330139,983.5332561983306,13.373237797798595,58.86822366227012,0.3797258122082832,1,250.27110803098407,26.22098770243387,21.438315879907986,6.849407592550349,5.0,0.0,2.0554634105046423,False
6.5600000000000005,-0.385443973014801,-0.0009354453716009365,0.029877392292522325,0.11790044632334604,-0.006361217700000873,0.011868547545122253,983.4719795217248,13.369842492272994,58.82078971219383,0.38660133207437236,1,250.79346272723197,26.01663058448381,21.575711042859577,6.88977645402739,5.0,0.0,2.023447054953547,False
6.58,-0.3902513878213356,-0.017273294220487057,0.03739168438722278,0.12069222549026486,-0.013364492709568061,-0.009009975162062011,983.4111847681369,13.366473720523459,59.47476357327309,0.39241897310275364,1,251.31173530408765,25.81240083599593,21.716314145779265,7.168546287404151,5.0,0.0,1.9917040410783562,False
6.6000000000000005,-0.38148332747295727,-0.01633696726918483,0.0521233509701449,0.10720944095652661,0.004102605161087607,0.007964212072331979,983.3508711837771,13.363131444769351,58.56773698629904,0.38537419394109784,1,251.82593157394388,25.608297375394862,21.856222494006378,6.88141428572274,5.0,0.0,1.9602336575108137,False
6.62,-0.37796964303477404,0.015262605051673574,0.030092499074129052,0.11745277248761415,0.0375541046875071,0.009782613849005556,983.2910379968519,13.359815626193097,57.36884829874851,0.37947273508030105,1,252.3360575087574,25.40431892892196,21.992485591800733,6.744869371868372,5.0,0.0,1.9290351700742716,False
6.640000000000001,-0.39136315809034405,0.004485164448233174,0.05707839138654512,0.1005156671069818,-0.02539874971910538,-0.002362398429956861,983.2316869792822,13.356526366915318,50.8571133242914,0.39552898879077236,1,252.84209739764302,25.200464940655692,22.113552663300016,5.450781120971299,5.0,0.0,1.8981079640413325,False
6.66,-0.39880222291595235,0.009391676935732392,0.03128067802492396,0.09678062018329953,-0.0012160158616841014,0.0006024745830942765,983.1728167025217,13.35326359166055,43.72054006284903,0.40013734818942986,1,253.3440628214554,24.996734102626682,22.222068865553485,5.401079880505718,5.0,0.0,1.8674513109423445,False
6.68,-0.3819814803957941,0.014711413695940027,0.05173934322822712,0.08109126713772301,-0.0008066321033516689,0.0008501402022284633,983.114427615519,13.350027329171326,41.63457673612011,0.3857502257886362,1,253.8419493582557,24.793125368389326,22.32971297295954,5.39834560904902,5.0,0.0,1.8370645314512966,False
6.7,-0.3913934593267955,-0.016539422238879276,0.039597470604456696,0.09821292970795445,0.011479576024382493,-0.004145935011126026,983.0565173296258,13.346817450876756,42.5225108948669,0.39373893910821506,1,254.33577678818847,24.589637433659007,22.43765821666265,5.396298345682296,5.0,0.0,1.806946910189188,False
6.72,-0.3965079523045957,-0.0003836110084163801,0.021078183081075934,0.10016719863044682,0.015384494820257274,-0.012935583299723424,982.9990962172935,13.343634535528452,47.71253690732886,0.3970679956886335,1,254.82545607254858,24.386271756610373,22.546611869195317,5.497056848067247,5.0,0.0,1.7770981606693934,False
6.74,-0.39344704243450906,-0.0065325390817970825,0.04874560490980154,0.07819502589597933,-0.0020589531617060705,0.0011622660827858052,982.9421497656497,13.340477782437176,34.62788218611518,0.3965089951884321,1,255.3111103942838,24.183023728168443,22.655154860734662,5.356691252301308,5.0,0.0,1.747517076550758,False
6.76,-0.3994633733127643,-0.0017837382659538173,0.03526395489994934,0.10183853663397219,-0.004703930169515126,0.0018734136984334482,982.8856798967691,13.33734730184591,44.538802881734725,0.40102084092450857,1,255.79272279293372,23.979892801918794,22.762737392149923,5.401517362505466,5.0,0.0,1.7182030818426228,False
6.78,-0.3864378262085036,-0.00991942762205642,0.03834654350975246,0.10246119041051377,-0.017310804760563875,-0.01574442424745067,982.829687140217,13.334243126786077,56.204358396980645,0.38846241255525377,1,256.2702881867583,23.77687812107532,22.87058845546024,5.384683620899173,5.0,0.0,1.6891555579446031,False
6.8,-0.39225066362063815,0.008253928009722779,0.05165919190046973,0.10529759274507558,-0.0005104779710831,-0.004443159568187702,982.7741881006921,13.331166181512913,55.6924154194367,0.395723871590065,1,256.7436643826245,23.573982808274234,22.980892054267375,5.39059946957561,5.0,0.0,1.6603744738804838,False
6.82,-0.39405742061389865,0.024561183930154464,0.055392547253945656,0.08953088145583656,0.0068005952698140405,-0.0023261139192486315,982.7191517792085,13.32811475102227,45.06360173173979,0.3986888972472278,1,257.2131152273464,23.37119842870573,23.088024285182307,5.323254786139745,5.0,0.0,1.631858104865714,False
6.84,-0.40395226099454457,-0.007047396733044502,0.044948224949020066,0.09175590056984251,-0.004796430375886736,0.007196362926583184,982.6645952447533,13.32508978522651,42.91013363108686,0.4065063811176711,1,257.67849458053666,23.168528061034085,23.193513234027645,5.22601300595582,5.0,0.0,1.6036064283632505,False
6.86,-0.4171732209851328,0.0011444997065782365,0.06185479030148141,0.11055951711157663,0.006158494455185138,-0.008707020847060492,982.6105150774088,13.32209109806496,60.70281270435086,0.4217354873257989,1,258.1398310669291,22.965969869090664,23.2996378723914,5.384850143965341,5.0,0.0,1.5756187051892614,False
6.88,-0.4012351952741882,0.010924052986239703,0.04066983887546072,0.0831370496513403,0.027785041796747404,0.012630354760917388,982.5569134695342,13.319118814628041,57.962145680956,0.40343903214056775,1,258.59710544184094,22.76352339463225,23.406788456529686,5.328822258097471,5.0,0.0,1.5478944008780853,False
6.9,-0.40286758400642353,-0.0066059640274438005,0.05767907400376539,0.10227731289832011,0.006964537284688678,0.014710306598946113,982.5037863043711,13.316172710124704,53.833576293177686,0.40702924290748005,1,259.05035228850664,22.5611868296462,23.51291744127522,5.284321870932743,5.0,0.0,1.5204327940691644,False
6.92,-0.40884427322529654,-0.008070109067013703,0.05661859533772341,0.09965115548178327,-0.007538077153418401,0.024734029191537867,982.451136662483,13.313252958838518,40.354895540321195,0.4128249408011722,1,259.4995447940745,22.35895980572841,23.617161234226273,5.140374700584856,5.0,0.0,1.4932333746028814,False
6.94,-0.4092575762336086,-0.004695036927966848,0.07249871614752211,0.08680776748914622,0.005333497730200451,0.009788289850763158,982.3989626979214,13.31035946182891,31.838789329551577,0.4156559525850699,1,259.94469818017154,22.156840910148254,23.722636994125676,5.41220720197835,5.0,0.0,1.4662954905490933,False
6.96,-0.4071507805437549,0.003964768636159297,0.07464102942059418,0.07417976093469278,-0.01744469132373547,0.014558334214323001,982.3472640822146,13.307492204269693,59.778562796880074,0.4139550226301079,1,260.38581472773586,21.95482914638194,23.830239915721414,5.348256088526447,5.0,0.0,1.439618554266739,False
6.98,-0.41520608126319225,0.007763889044009977,0.05942296600157289,0.11200417738580704,-0.0005740276019466641,-0.004149940513675165,982.296041587261,13.304651232332787,57.49200141417808,0.41950858963726645,1,260.8228873334137,21.752923682311682,23.936808224385558,5.309646792122388,5.0,0.0,1.4132020064981412,False
7.0,-0.41010976545568417,0.015130764800609339,0.06940885568361597,0.07510765864373264,0.016298095684553683,0.0027329048823233476,982.2453002811529,13.301836830463344,54.26830408467408,0.4162169494540998,1,261.25587223641276,21.551124654413446,24.04228420884728,5.240583263026399,5.0,0.0,1.387045422416029,False
7.0200000000000005,-0.4206021880074197,0.027135700152045635,0.04261206759149741,0.0902879650342998,0.0018961780607737245,0.0007803666751302895,982.1950365199965,13.299048799876005,36.17832351666094,0.42362522951754533,1,261.6848000190795,21.349430299690518,24.146430386612366,5.175835188481291,5.0,0.0,1.3611481249902888,False
7.04,-0.4197493716476401,-0.01449128099433288,0.06804525468600038,0.09533389715204942,0.002569470394196025,-0.0019270477461896815,982.1452446532594,13.29628683041011,50.64264969343699,0.42547583821966667,1,262.1097183984466,21.147838429360995,24.250864975306865,5.266715701823333,5.0,0.0,1.3355093909144065,False
7.0600000000000005,-0.4062769620807175,0.003508747569601574,0.07331539866345106,0.08913000422202465,0.014719603972586799,0.0070006067955549,982.0959231334812,13.293550839435738,31.643430190491998,0.4128540043504783,1,262.5306400868113,20.94634767317378,24.355618038542783,5.209106888383212,5.0,0.0,1.3101286156212983,False
7.08,-0.42008063596395695,0.00088140561625267,0.09094179048862724,0.09038833669586058,-0.010743795158423478,0.00878141936038839,982.047075413404,13.290841021670076,44.51199096998852,0.42981266482622427,1,262.9475351276764,20.744957903799634,24.459997142346186,5.226525365932188,5.0,0.0,1.2850053614135686,False
7.1000000000000005,-0.4343298134662963,0.008564993335264223,0.06262464167260924,0.10893144105760943,-0.002648826591239611,0.0022315784702293924,981.9987302028426,13.288158973046393,51.724819670027046,0.4389049916794334,1,263.36015799286616,20.543674097228408,24.56641253826453,5.413858141744061,5.0,0.0,1.260139844076848,False
7.12,-0.4281645824241678,0.0026873589609862584,0.06216063562907734,0.10276434375537705,0.002864556294268155,0.01203685281133754,981.9508291061568,13.285501457080272,35.89174560005942,0.4326616185455535,1,263.7690066030351,20.342483097640315,24.675108089019208,5.452219369306029,5.0,0.0,1.2355299626222522,False
7.140000000000001,-0.44560789485802255,-0.0015467257862515444,0.08169145498923491,0.12000644344901065,-0.0033850901552481124,-0.00023000682620753058,981.903421572304,13.282871220233915,30.027688646935363,0.4530367337630741,1,264.17365842555074,20.141393922964923,24.78347713908511,5.3855628665763255,5.0,0.0,1.2111764595742016,False
7.16,-0.4372848127714236,0.0019560505793736814,0.04972613583014406,0.09191085785017267,-0.002060843940844538,0.004108523049768958,981.8564680603927,13.280266071798053,55.874097766771904,0.4401073984824681,1,264.5744504926094,19.94039809007005,24.89108675237608,5.376540458519586,5.0,0.0,1.1870778599885747,False
7.18,-0.44004866527098896,-0.017854334539506835,0.06435777836678071,0.10392743671901286,0.019367502719868437,0.012446629725299729,981.8100140258649,13.277688536866094,55.86094955623578,0.4450882257541028,1,264.97099432829685,19.739503348638955,24.997916536787006,5.306898059728901,5.0,0.0,1.1632347284663729,False
7.2,-0.44100638210310356,-0.0035820335286217194,0.06461440037032737,0.10462211082917697,0.003084763680771362,0.009800412191903602,981.7640038468248,13.27513553221877,46.41641083915208,0.44572915627664034,1,265.3637642740335,19.538697932358183,25.103245915988012,5.229189090805268,5.0,0.0,1.1396452178910452,False
7.22,-0.4352268018198154,0.021832559277178858,0.07183623278282694,0.11819980359959578,0.017988170316371295,-0.0024181353866361867,981.7184645273525,13.272608559134198,48.48650820294522,0.44165537923512815,1,265.75252936396953,19.337986140412703,25.207605051610667,5.208056206137486,5.0,0.0,1.1163094737698938,False
7.24,-0.44259265117854873,0.0028204675443337093,0.0654489333489616,0.09399746114404384,0.002449832573274311,0.004172108374778909,981.6733968269899,13.27010766269808,50.47810917961919,0.44741454244463486,1,266.137282661837,19.13736712138644,25.309842309381942,5.016785101404919,5.0,0.0,1.093227007501991,False
7.26,-0.4479751306718007,0.003376450625395541,0.0762529178644071,0.09695263164336032,0.0014438571485081981,0.01911756149206592,981.6288006450558,13.267632840234228,40.3087015307788,0.4544311010506199,1,266.51802457934974,18.93683992678092,25.40951189652877,4.949941391115972,5.0,0.0,1.0703973235770172,False
7.28,-0.4532317277884384,0.00425572270318816,0.08876216339685884,0.0894407898575586,-0.006645784291682849,-0.0053312880577253375,981.5846760001987,13.265184095658014,54.477272080128955,0.46186126910654707,1,266.8947545141557,18.736403494792008,25.508572573623155,4.955929327377146,5.0,0.0,1.0478199192646864,False
7.3,-0.43497349580510186,0.0032242850578281185,0.0942405471695714,0.09125089201078805,-0.00911564122980332,0.014353447035988207,981.5410297445887,13.26276181210909,67.2538613311619,0.4450770930949663,1,267.2674135216817,18.536058394474985,25.606495542666483,4.839624017331222,5.0,0.0,1.0254944839457725,False
7.32,-0.44078303234818605,0.023193636157158783,0.0769303618873241,0.1050033544289883,0.011693100500369353,0.0007336299335967912,981.497847938103,13.260365218756931,58.008441616575055,0.44804676870207133,1,267.6361201912371,18.33580088819475,25.703633479464962,4.871754720722499,5.0,0.0,1.003420215971469,False
7.34,-0.45788146571412236,-0.004465964081362157,0.06936607076283535,0.07644397348659214,-0.0010106782240606748,0.0072411496253782315,981.455152756497,13.257995549171085,37.20586202526844,0.4631274481746506,1,268.0006847429118,18.13563415647584,25.80089543081166,4.8545871947659265,5.0,0.0,0.981597111547542,False
7.36,-0.44688614111285774,0.0001512794234613369,0.075049431999267,0.08020236789385893,0.004383924008928659,-0.0034545390295131558,981.4129122503887,13.255651032850494,39.61654000464626,0.45314419697003466,1,268.36137956146337,17.935551319746683,25.897628264975346,4.823163547142231,5.0,0.0,0.9600240309801259,False
7.38,-0.4515551995088913,0.012153653007334368,0.06932526240221763,0.06498247109063421,0.007398457414651897,0.02645704272000829,981.3711406394442,13.253332461716582,49.086774469239366,0.45700744139682625,1,268.71808281283467,17.735554079333244,25.992682982935506,4.6851519505685175,5.0,0.0,0.9387008146556229,False
7.4,-0.4536215607195661,-0.019080210933039743,0.08362791494293055,0.09820553431069211,-0.010455922882950776,0.003913508733801233,981.3298427770121,13.251040107857818,62.75689704426834,0.4616602678990323,1,269.0707526372585,17.53564233739558,26.086662005954548,4.712580940871511,5.0,0.0,0.917627099162616,False
7.42,-0.44818409231172596,-0.0014027526878187466,0.08596823052367009,0.09342356872452214,-0.008534712706314028,-0.004777773748243375,981.2890112609338,13.24877356305825,61.7542821493766,0.4563567518682721,1,269.4194518371943,17.33581386219665,26.18355202836968,4.961979797329382,5.0,0.0,0.8968022921235553,False
7.44,-0.43825154507930786,0.0014579202571083558,0.0802233238111546,0.09516278282011195,-0.007047023023953809,0.0028932281621289638,981.2486472049635,13.246532891756146,47.17807818616985,0.4455359962777262,1,269.76417049905183,17.136067886971116,26.28210200059876,4.896448463177099,5.0,0.0,0.8762259690624778,False
7.46,-0.44333838346343163,0.02695795574210412,0.10663272270283729,0.07530612908629133,-0.021552824203800197,0.0015006376642260845,981.2087642593458,13.244318854322955,36.48656705445821,0.45677805461819443,1,270.10479164261955,16.93640579962884,26.380997727720313,4.991667250302459,5.0,0.0,0.8558979364592462,False
7.48,-0.46503760096560465,0.012736595551147038,0.08365083747665751,0.0985453719635963,-0.005716300989657609,-0.001956121162301423,981.1693416245657,13.242130298682525,43.96099428863206,0.4726728824341678,1,270.4414925103816,16.73682306192228,26.481328039865982,5.037589921907451,5.0,0.0,0.835817378334701,False
