Time_s,Temperature_C,Humidity_%,Pressure_hPa,Lat,Lng,Alt_m,Fix,Sats,AccelX_g,AccelY_g,AccelZ_g,GyroX_deg_s,GyroY_deg_s,GyroZ_deg_s,TotalAccel,FlightStarted,ParachuteState,VideoSegment
20.658,22.94,67.51,1004.34,0.000000,0.000000,0.00,0,1,0.1187,-0.0778,1.3357,250.1298,-23.2443,82.9084,1.343,1,NONE,6
20.666,22.94,67.51,1004.34,0.000000,0.000000,0.00,0,1,0.0959,-0.0566,1.3401,250.1298,-31.1145,85.6947,1.345,1,NONE,6
20.674,22.94,67.51,1004.34,0.000000,0.000000,0.00,0,1,0.0971,-0.0490,1.3499,250.1298,-39.8626,86.7634,1.354,1,NONE,6
20.682,22.94,67.51,1004.34,0.000000,0.000000,0.00,0,1,0.0437,-0.0371,1.3716,250.1298,-50.0534,90.5496,1.373,1,NONE,6
20.690,22.94,67.51,1004.34,0.000000,0.000000,0.00,0,1,0.0744,-0.0554,1.3650,250.1298,-60.6412,95.0458,1.368,1,NONE,6
20.699,22.94,67.51,1004.34,0.000000,0.000000,0.00,0,1,0.0903,-0.0712,1.3843,250.1298,-74.1374,98.8855,1.389,1,NONE,6
20.707,22.94,67.51,1004.34,0.000000,0.000000,0.00,0,1,0.0988,-0.0744,1.3555,250.1298,-89.5496,106.1298,1.361,1,NONE,6
20.715,22.94,67.47,1004.34,0.000000,0.000000,0.00,0,1,0.0856,-0.0773,1.3306,250.1298,-107.4427,115.7786,1.336,1,NONE,6
20.723,22.94,67.47,1004.34,0.000000,0.000000,0.00,0,1,0.0661,-0.0795,1.3096,250.1298,-121.4733,128.7328,1.314,1,NONE,6
20.731,22.94,67.47,1004.34,0.000000,0.000000,0.00,0,1,0.0607,-0.0820,1.2981,250.1298,-135.0534,142.1832,1.302,1,NONE,6
20.739,22.94,67.47,1004.34,0.000000,0.000000,0.00,0,1,0.0666,-0.0732,1.2847,250.1298,-146.6336,154.5649,1.288,1,NONE,6
20.747,22.94,67.47,1004.34,0.000000,0.000000,0.00,0,1,0.0600,-0.0708,1.3091,246.2672,-156.2061,165.2443,1.312,1,NONE,6
20.757,22.94,67.47,1004.34,0.000000,0.000000,0.00,0,1,-0.0009,-0.0915,1.3850,229.5267,-163.1450,181.4504,1.388,1,NONE,6
20.773,22.94,67.47,1004.34,0.000000,0.000000,0.00,0,1,-0.0886,-0.1067,1.5168,191.8702,-161.2443,209.1603,1.523,1,NONE,6
20.788,22.94,67.47,1004.34,0.000000,0.000000,0.00,0,1,-0.1277,-0.0849,1.5955,151.7710,-147.2366,229.9695,1.603,1,NONE,6
20.804,22.94,67.47,1004.34,0.000000,0.000000,0.00,0,1,-0.1450,-0.0415,1.5723,118.9618,-126.8473,232.2519,1.579,1,NONE,6
20.819,22.91,67.49,1004.30,0.000000,0.000000,0.00,0,1,-0.1626,-0.0173,1.4744,81.8092,-104.0611,221.6870,1.483,1,NONE,6
20.835,22.91,67.49,1004.30,0.000000,0.000000,0.00,0,1,-0.1282,-0.0144,1.4065,47.8015,-78.0534,205.7252,1.412,1,NONE,6
20.850,22.91,67.49,1004.30,0.000000,0.000000,0.00,0,1,-0.1292,-0.0712,1.4106,23.7252,-53.7939,196.4275,1.418,1,NONE,6
20.865,22.91,67.49,1004.30,0.000000,0.000000,0.00,0,1,-0.0969,-0.0744,1.3855,-7.2443,-38.6947,198.0305,1.391,1,NONE,6
20.881,22.91,67.49,1004.30,0.000000,0.000000,0.00,0,1,-0.0410,-0.0356,1.3276,-38.3817,-40.0916,195.4733,1.329,1,NONE,6
20.896,22.91,67.49,1004.30,0.000000,0.000000,0.00,0,1,-0.0219,-0.0166,1.2793,-59.9160,-51.1374,180.7710,1.280,1,NONE,6
20.912,22.93,67.47,1004.33,0.000000,0.000000,0.00,0,1,-0.0551,-0.0017,1.2510,-80.3282,-59.3893,160.8855,1.252,1,NONE,6
20.927,22.93,67.47,1004.33,0.000000,0.000000,0.00,0,1,-0.0776,-0.0202,1.2375,-93.9084,-53.7481,142.7557,1.240,1,NONE,6
20.941,22.93,67.47,1004.33,0.000000,0.000000,0.00,0,1,-0.0817,-0.0344,1.2036,-95.3817,-38.8779,127.8015,1.207,1,NONE,6
20.956,22.93,67.47,1004.33,0.000000,0.000000,0.00,0,1,-0.0607,-0.0183,1.1230,-98.9924,-20.9008,113.2290,1.125,1,NONE,6
20.971,22.93,67.48,1004.36,0.000000,0.000000,0.00,0,1,0.0043,-0.0451,1.0076,-98.7863,-99.5191,41.8015,1.009,1,NONE,6
21.048,22.93,67.48,1004.36,0.000000,0.000000,0.00,0,1,-0.0080,-0.0336,0.9907,-95.6183,-95.2901,33.8397,0.991,1,NONE,6
21.056,22.93,67.48,1004.36,0.000000,0.000000,0.00,0,1,-0.0058,-0.0197,0.9783,-91.8779,-90.1679,24.1221,0.978,1,NONE,6
21.065,22.94,67.47,1004.34,0.000000,0.000000,0.00,0,1,0.0578,-0.0417,0.7849,-28.3435,-46.8855,-55.3206,0.788,1,NONE,6
21.141,22.94,67.47,1004.34,0.000000,0.000000,0.00,0,1,0.0578,-0.0498,0.7666,-19.8321,-43.2977,-57.0229,0.770,1,NONE,6
21.150,22.94,67.47,1004.34,0.000000,0.000000,0.00,0,1,-0.6006,-0.4158,0.9961,-2.3435,-6.6183,-44.9771,1.235,1,NONE,6
21.158,22.94,67.47,1004.34,0.000000,0.000000,0.00,0,1,-0.8806,-1.0403,1.6396,19.3740,92.5954,0.7939,2.132,1,NONE,6
21.166,22.94,67.47,1004.34,0.000000,0.000000,0.00,0,1,0.0593,-0.6921,1.3999,41.7023,116.4733,36.4733,1.563,1,NONE,6
21.174,22.94,67.47,1004.34,0.000000,0.000000,0.00,0,1,0.4878,-0.1443,0.7017,34.9542,64.6260,25.7557,0.867,1,NONE,6
21.182,22.94,67.47,1004.34,0.000000,0.000000,0.00,0,1,0.2317,-0.0954,0.4858,35.2061,22.6183,-3.7863,0.547,1,NONE,6
21.190,22.94,67.47,1004.34,0.000000,0.000000,0.00,0,1,0.2483,-0.2773,0.5759,33.0458,-10.1374,-20.5496,0.686,1,NONE,6
21.198,22.94,67.47,1004.30,0.000000,0.000000,0.00,0,1,0.1816,-0.3188,0.7375,29.9237,-33.3893,-27.4427,0.824,1,NONE,6
21.206,22.94,67.47,1004.30,0.000000,0.000000,0.00,0,1,0.1699,-0.1575,0.7681,17.0000,-49.1832,-42.0687,0.802,1,NONE,6
21.214,22.94,67.47,1004.30,0.000000,0.000000,0.00,0,1,0.2048,-0.0312,0.7053,-8.9466,-61.4733,-66.0229,0.735,1,NONE,6
21.222,22.94,67.47,1004.30,0.000000,0.000000,0.00,0,1,0.2034,-0.1160,0.7285,-32.8702,-63.9084,-85.3588,0.765,1,NONE,6
21.231,22.94,67.47,1004.30,0.000000,0.000000,0.00,0,1,0.2974,-0.1711,0.7739,-54.4275,-64.8397,-95.2824,0.847,1,NONE,6
21.246,22.94,67.47,1004.30,0.000000,0.000000,0.00,0,1,0.5100,-0.2891,0.8840,-62.4351,-70.7176,-88.0992,1.061,1,NONE,6
21.261,22.92,67.47,1004.27,0.000000,0.000000,0.00,0,1,0.4390,-0.1736,1.0405,0.1527,-7.3435,6.6870,1.143,1,NONE,6
21.339,22.92,67.47,1004.36,0.000000,0.000000,0.00,0,1,0.5098,-0.3113,1.0090,110.7405,-47.8321,-14.2290,1.173,1,NONE,6
21.415,22.95,67.48,1004.36,0.000000,0.000000,0.00,0,1,0.5022,-0.3240,0.9993,121.5191,-50.8092,-22.2214,1.164,1,NONE,6
21.423,22.95,67.48,1004.36,0.000000,0.000000,0.00,0,1,0.4822,-0.3020,0.9827,131.9618,-53.4656,-31.8168,1.135,1,NONE,6
21.556,22.93,67.49,1004.31,0.000000,0.000000,0.00,0,1,0.3552,-0.1853,0.7971,68.4198,7.9618,-54.5573,0.892,1,DEPLOYED,6
21.564,22.93,67.49,1004.31,0.000000,0.000000,0.00,0,1,0.3420,-0.2129,0.8391,62.5420,6.8244,-49.4885,0.931,1,DEPLOYED,6
21.571,22.93,67.48,1004.33,0.000000,0.000000,0.00,0,1,0.3953,-0.2522,1.1194,44.4580,-29.0916,2.2290,1.214,1,DEPLOYED,6
21.693,22.94,67.48,1004.33,0.000000,0.000000,0.00,0,1,0.5498,-0.2976,1.2871,44.8397,-42.4580,-2.2290,1.431,1,DEPLOYED,6
21.701,22.94,67.48,1004.33,0.000000,0.000000,0.00,0,1,0.5710,-0.2744,1.3435,47.6336,-34.9389,-9.1145,1.485,1,DEPLOYED,6
21.709,22.94,67.48,1004.33,0.000000,0.000000,0.00,0,1,0.5837,-0.2573,1.3579,49.0305,-23.7252,-15.2519,1.500,1,DEPLOYED,6
21.717,22.94,67.48,1004.33,0.000000,0.000000,0.00,0,1,0.5879,-0.2476,1.3459,48.3053,-8.4809,-20.3435,1.489,1,DEPLOYED,6
21.725,22.94,67.48,1004.33,0.000000,0.000000,0.00,0,1,0.5959,-0.2231,1.3250,45.7405,9.0763,-25.2214,1.470,1,DEPLOYED,6
21.733,22.94,67.48,1004.33,0.000000,0.000000,0.00,0,1,0.5857,-0.2024,1.2893,40.8321,28.8015,-32.7405,1.430,1,DEPLOYED,6
21.741,22.94,67.48,1004.33,0.000000,0.000000,0.00,0,1,0.5630,-0.1958,1.2717,35.3511,47.1603,-41.4580,1.404,1,DEPLOYED,6
21.749,22.94,67.48,1004.33,0.000000,0.000000,0.00,0,1,0.5576,-0.1946,1.2654,30.3817,62.0382,-52.0611,1.396,1,DEPLOYED,6
21.757,22.94,67.48,1004.33,0.000000,0.000000,0.00,0,1,0.5513,-0.1853,1.2527,26.7634,73.3817,-61.7176,1.381,1,DEPLOYED,6
21.765,22.94,67.48,1004.33,0.000000,0.000000,0.00,0,1,0.5369,-0.1772,1.2302,24.6565,82.1908,-70.6565,1.354,1,DEPLOYED,6
21.773,22.93,67.46,1004.29,0.000000,0.000000,0.00,0,1,0.2803,0.0410,0.9429,29.6031,95.3817,-82.3282,0.985,1,DEPLOYED,6
21.851,22.93,67.46,1004.29,0.000000,0.000000,0.00,0,1,0.2734,0.0617,0.9280,29.6794,90.9618,-80.9466,0.969,1,DEPLOYED,6
21.859,22.93,67.46,1004.29,0.000000,0.000000,0.00,0,1,0.2646,0.0617,0.9011,30.6412,85.2061,-78.9542,0.941,1,DEPLOYED,6
21.867,22.93,67.46,1004.29,0.000000,0.000000,0.00,0,1,0.2720,0.0715,0.8916,34.0840,78.2137,-75.4122,0.935,1,DEPLOYED,6
21.875,22.93,67.46,1004.29,0.000000,0.000000,0.00,0,1,0.2495,0.0708,0.8928,38.3206,71.3893,-71.2061,0.930,1,DEPLOYED,6
21.883,22.95,67.51,1004.34,0.000000,0.000000,0.00,0,1,0.2488,0.0783,0.8750,41.8626,64.4809,-66.3664,0.913,1,DEPLOYED,6
21.891,22.95,67.51,1004.34,0.000000,0.000000,0.00,0,1,0.2568,0.0932,0.8625,43.8855,57.7786,-61.1985,0.905,1,DEPLOYED,6
21.899,22.95,67.51,1004.34,0.000000,0.000000,0.00,0,1,0.2703,0.1604,0.8779,35.7328,30.0763,-64.8321,0.932,1,DEPLOYED,6
21.977,22.95,67.48,1004.30,0.000000,0.000000,0.00,0,1,0.2627,0.1643,0.8928,39.4809,31.4198,-68.0000,0.945,1,DEPLOYED,6
21.985,22.94,67.48,1004.30,0.000000,0.000000,0.00,0,1,0.2551,0.1848,0.9014,38.7786,33.1908,-71.1985,0.955,1,DEPLOYED,6
21.993,22.94,67.48,1004.30,0.000000,0.000000,0.00,0,1,0.2183,0.2205,0.8975,34.6947,35.6489,-73.9695,0.950,1,DEPLOYED,6
22.001,22.94,67.48,1004.30,0.000000,0.000000,0.00,0,1,0.2917,0.3174,0.9185,54.1069,-0.5878,-68.9542,1.015,1,DEPLOYED,6
22.078,22.94,67.49,1004.29,0.000000,0.000000,0.00,0,1,0.2891,0.3625,0.9138,66.3359,-12.0534,-66.4580,1.025,1,DEPLOYED,6
22.086,22.94,67.49,1004.29,0.000000,0.000000,0.00,0,1,0.2671,0.4150,0.9038,75.2443,-23.7481,-64.6641,1.030,1,DEPLOYED,6
22.094,22.94,67.49,1004.29,0.000000,0.000000,0.00,0,1,0.2126,0.4688,0.8928,76.2519,-32.3130,-65.4962,1.031,1,DEPLOYED,6
22.102,22.94,67.49,1004.29,0.000000,0.000000,0.00,0,1,0.1858,0.5095,0.8945,69.7023,-38.3511,-67.0000,1.046,1,DEPLOYED,6
22.110,22.94,67.49,1004.29,0.000000,0.000000,0.00,0,1,0.1455,0.5154,0.9026,57.8397,-40.7252,-67.5267,1.050,1,DEPLOYED,6
22.118,22.94,67.49,1004.29,0.000000,0.000000,0.00,0,1,0.1228,0.5203,0.9104,42.0840,-39.3969,-67.1908,1.056,1,DEPLOYED,6
22.126,22.94,67.49,1004.29,0.000000,0.000000,0.00,0,1,0.1147,0.5081,0.9180,24.2443,-35.5344,-66.0534,1.055,1,DEPLOYED,6
22.134,22.94,67.49,1004.29,0.000000,0.000000,0.00,0,1,0.1301,0.4734,0.9226,7.5802,-30.0153,-63.5802,1.045,1,DEPLOYED,6
22.142,22.94,67.49,1004.29,0.000000,0.000000,0.00,0,1,0.1589,0.4358,0.9270,-6.1374,-22.8244,-60.0611,1.037,1,DEPLOYED,6
22.150,22.94,67.49,1004.29,0.000000,0.000000,0.00,0,1,0.2014,0.3757,0.9333,-15.4656,-15.2214,-55.8092,1.026,1,DEPLOYED,6
22.158,22.94,67.49,1004.29,0.000000,0.000000,0.00,0,1,0.2354,0.3474,0.9258,-20.6412,-7.8779,-51.2901,1.016,1,DEPLOYED,6
22.166,22.94,67.49,1004.29,0.000000,0.000000,0.00,0,1,0.2908,0.2952,0.9204,-21.2595,-1.3130,-45.9618,1.009,1,DEPLOYED,6
22.182,22.93,67.49,1004.26,0.000000,0.000000,0.00,0,1,0.1655,0.2710,0.8789,-20.3282,17.5420,-6.1832,0.935,1,DEPLOYED,6
22.259,22.93,67.49,1004.26,0.000000,0.000000,0.00,0,1,0.1648,0.2559,0.8936,-21.9237,15.5267,-2.5191,0.944,1,DEPLOYED,6
22.267,22.93,67.49,1004.27,0.000000,0.000000,0.00,0,1,0.1907,0.2139,0.8875,-21.5114,13.2443,3.5420,0.933,1,DEPLOYED,6
22.275,22.95,67.50,1004.30,0.000000,0.000000,0.00,0,1,0.2295,0.1953,0.8623,-15.0534,9.9542,10.3511,0.913,1,DEPLOYED,6
22.283,22.95,67.50,1004.30,0.000000,0.000000,0.00,0,1,0.1614,0.3042,0.8477,-8.9389,0.3130,6.4351,0.915,1,DEPLOYED,7
22.362,22.95,67.47,1004.33,0.000000,0.000000,0.00,0,1,0.2661,0.3528,0.9663,0.7634,-10.2214,-10.7863,1.063,1,DEPLOYED,7
22.507,22.95,67.47,1004.33,0.000000,0.000000,0.00,0,1,0.2625,0.3604,0.9590,1.6718,-9.4809,-10.0000,1.058,1,DEPLOYED,7
22.516,22.95,67.47,1004.33,0.000000,0.000000,0.00,0,1,0.2598,0.3618,0.9531,1.9389,-8.1756,-8.5038,1.052,1,DEPLOYED,7
22.524,22.95,67.47,1004.33,0.000000,0.000000,0.00,0,1,0.2510,0.3665,0.9504,1.5878,-6.2748,-6.6489,1.049,1,DEPLOYED,7
22.532,22.95,67.47,1004.33,0.000000,0.000000,0.00,0,1,0.2495,0.3645,0.9448,1.0458,-3.9008,-4.1908,1.043,1,DEPLOYED,7
22.540,22.95,67.47,1004.33,0.000000,0.000000,0.00,0,1,0.2517,0.3652,0.9343,0.6336,-1.8092,-1.5954,1.034,1,DEPLOYED,7
22.548,22.95,67.47,1004.33,0.000000,0.000000,0.00,0,1,0.2476,0.3691,0.9292,0.0305,0.0458,0.0000,1.030,1,DEPLOYED,7
22.555,22.95,67.47,1004.33,0.000000,0.000000,0.00,0,1,0.2466,0.3689,0.9241,-0.4046,1.5878,1.0534,1.025,1,DEPLOYED,7
22.563,22.95,67.49,1004.31,0.000000,0.000000,0.00,0,1,0.2590,0.3726,0.9214,-0.4733,2.1221,1.3893,1.027,1,DEPLOYED,7
22.571,22.95,67.49,1004.31,0.000000,0.000000,0.00,0,1,0.2405,0.3762,0.9297,0.0229,1.9466,1.2137,1.031,1,DEPLOYED,7
22.580,22.95,67.49,1004.31,0.000000,0.000000,0.00,0,1,0.2405,0.3745,0.9250,0.6107,1.5496,1.3053,1.027,1,DEPLOYED,7
22.653,22.95,67.49,1004.31,0.000000,0.000000,0.00,0,1,0.2354,0.3689,0.9321,0.7252,-6.8931,2.1374,1.030,1,DEPLOYED,7
22.661,22.94,67.45,1004.31,0.000000,0.000000,0.00,0,1,0.2400,0.3857,0.9326,0.4733,-6.8855,1.5496,1.037,1,DEPLOYED,7
22.669,22.94,67.45,1004.31,0.000000,0.000000,0.00,0,1,0.2395,0.3782,0.9299,-0.0610,-6.9924,1.0840,1.032,1,DEPLOYED,7
22.677,22.94,67.45,1004.31,0.000000,0.000000,0.00,0,1,0.2388,0.3755,0.9299,-0.6565,-7.0687,0.5954,1.031,1,DEPLOYED,7
22.685,22.94,67.45,1004.31,0.000000,0.000000,0.00,0,1,0.2410,0.3733,0.9338,-1.4656,-7.1374,0.3588,1.034,1,DEPLOYED,7
22.693,22.93,67.46,1004.28,0.000000,0.000000,0.00,0,1,0.2732,0.3677,0.9431,4.4809,-4.4885,11.3206,1.048,1,DEPLOYED,7
22.839,22.93,67.46,1004.28,0.000000,0.000000,0.00,0,1,0.2917,0.3706,0.9453,5.1145,-3.9313,11.6412,1.056,1,DEPLOYED,7
22.847,22.93,67.46,1004.28,0.000000,0.000000,0.00,0,1,0.2776,0.3723,0.9421,5.1679,-3.2824,12.0840,1.050,1,DEPLOYED,7
22.855,22.96,67.45,1004.32,0.000000,0.000000,0.00,0,1,0.2720,0.3645,0.9448,4.9466,-3.0611,11.6489,1.049,1,DEPLOYED,7
22.863,22.96,67.45,1004.32,0.000000,0.000000,0.00,0,1,0.2744,0.3755,0.9453,4.6565,-3.0000,11.0305,1.054,1,DEPLOYED,7
22.871,22.96,67.45,1004.32,0.000000,0.000000,0.00,0,1,0.2690,0.3752,0.9482,4.0916,-2.8092,10.1832,1.055,1,DEPLOYED,7
22.879,22.96,67.45,1004.32,0.000000,0.000000,0.00,0,1,0.2742,0.3677,0.9436,-6.0534,-0.6641,6.1374,1.049,1,DEPLOYED,7
22.955,22.94,67.46,1004.30,0.000000,0.000000,0.00,0,1,0.2705,0.3682,0.9487,-5.2214,-1.5267,6.1450,1.053,1,DEPLOYED,7
22.963,22.94,67.46,1004.30,0.000000,0.000000,0.00,0,1,0.2783,0.3674,0.9470,-4.1603,-2.5344,6.2748,1.053,1,DEPLOYED,7
22.971,22.94,67.46,1004.30,0.000000,0.000000,0.00,0,1,0.2925,0.3635,0.9490,-2.6031,-3.3588,6.8015,1.057,1,DEPLOYED,7
22.979,22.94,67.46,1004.30,0.000000,0.000000,0.00,0,1,0.2832,0.3630,0.9529,-0.4504,-3.5878,7.1756,1.058,1,DEPLOYED,7
22.987,22.94,67.46,1004.30,0.000000,0.000000,0.00,0,1,0.2937,0.3611,0.9507,0.6947,-3.4275,7.9313,1.059,1,DEPLOYED,7
22.995,22.94,67.46,1004.30,0.000000,0.000000,0.00,0,1,0.2822,0.3638,0.9480,0.7634,-2.2977,8.4198,1.054,1,DEPLOYED,7
23.003,22.94,67.46,1004.30,0.000000,0.000000,0.00,0,1,0.2778,0.3677,0.9441,0.1679,-0.5649,8.9084,1.051,1,DEPLOYED,7
23.011,22.94,67.46,1004.30,0.000000,0.000000,0.00,0,1,0.2854,0.3586,0.9302,-0.7481,1.1908,9.4885,1.037,1,DEPLOYED,7
23.019,22.94,67.46,1004.30,0.000000,0.000000,0.00,0,1,0.2810,0.3567,0.9294,-2.5802,2.8321,9.5267,1.034,1,DEPLOYED,7
23.027,22.94,67.46,1004.30,0.000000,0.000000,0.00,0,1,0.2781,0.3547,0.9204,-4.1832,3.9924,9.2366,1.025,1,DEPLOYED,7
23.035,22.94,67.46,1004.30,0.000000,0.000000,0.00,0,1,0.2798,0.3547,0.9221,-4.9313,4.3817,9.0305,1.027,1,DEPLOYED,7
23.043,22.94,67.46,1004.30,0.000000,0.000000,0.00,0,1,0.2695,0.3428,0.9294,-5.2061,4.0916,8.9008,1.027,1,DEPLOYED,7
23.055,22.94,67.49,1004.27,0.000000,0.000000,0.00,0,1,0.2771,0.3308,0.9312,-3.8321,2.3740,9.3282,1.026,1,DEPLOYED,7
23.068,22.94,67.49,1004.27,0.000000,0.000000,0.00,0,1,0.2815,0.3342,0.9346,-0.9618,-0.1221,10.1908,1.032,1,DEPLOYED,7
23.084,22.94,67.49,1004.27,0.000000,0.000000,0.00,0,1,0.2686,0.3340,0.9426,2.9466,-2.6718,13.1374,1.035,1,DEPLOYED,7
23.099,22.94,67.49,1004.27,0.000000,0.000000,0.00,0,1,0.2546,0.3420,0.9463,3.5954,-4.2824,15.8321,1.038,1,DEPLOYED,7
23.115,22.94,67.49,1004.27,0.000000,0.000000,0.00,0,1,0.2471,0.3369,0.9402,2.0840,-5.0687,16.8015,1.029,1,DEPLOYED,7
23.128,22.94,67.49,1004.27,0.000000,0.000000,0.00,0,1,0.2625,0.3398,0.9451,0.5573,-5.8473,15.9771,1.038,1,DEPLOYED,7
23.143,22.94,67.49,1004.28,0.000000,0.000000,0.00,0,1,0.2625,0.3340,0.9458,-1.6870,-6.6718,13.4504,1.037,1,DEPLOYED,7
23.158,22.95,67.43,1004.28,0.000000,0.000000,0.00,0,1,0.2676,0.3374,0.9417,-4.3740,-7.8473,9.1221,1.035,1,DEPLOYED,7
23.174,22.95,67.43,1004.28,0.000000,0.000000,0.00,0,1,0.2642,0.3501,0.9534,-7.5573,-9.5496,3.6107,1.049,1,DEPLOYED,7
23.189,22.95,67.43,1004.28,0.000000,0.000000,0.00,0,1,0.2715,0.3430,0.9526,-10.8168,-11.1985,-1.5649,1.048,1,DEPLOYED,7
23.205,22.95,67.43,1004.28,0.000000,0.000000,0.00,0,1,0.2654,0.3623,0.9619,-14.0458,-12.1832,-4.0458,1.062,1,DEPLOYED,7
23.218,22.95,67.43,1004.28,0.000000,0.000000,0.00,0,1,0.2871,0.3594,0.9644,-15.5267,-12.6641,-3.9542,1.068,1,DEPLOYED,7
23.233,22.95,67.43,1004.28,0.000000,0.000000,0.00,0,1,0.2910,0.3628,0.9741,-16.0382,-12.7634,-2.2901,1.079,1,DEPLOYED,7
23.248,22.95,67.50,1004.30,0.000000,0.000000,0.00,0,1,0.2961,0.3630,0.9785,-16.8626,-12.0382,0.1832,1.085,1,DEPLOYED,7
23.264,22.95,67.50,1004.30,0.000000,0.000000,0.00,0,1,0.3030,0.3552,0.9724,-17.1221,-10.3053,3.7786,1.079,1,DEPLOYED,7
23.279,22.95,67.50,1004.30,0.000000,0.000000,0.00,0,1,0.3103,0.3477,0.9724,-15.8779,-9.2290,7.8931,1.078,1,DEPLOYED,7
23.294,22.95,67.50,1004.30,0.000000,0.000000,0.00,0,1,0.3022,0.3372,0.9622,-13.6947,-10.4275,12.5954,1.063,1,DEPLOYED,7
23.310,22.95,67.50,1004.31,0.000000,0.000000,0.00,0,1,0.3201,0.2844,0.9612,-2.2748,-12.5649,42.1069,1.052,1,DEPLOYED,7
23.386,22.95,67.49,1004.31,0.000000,0.000000,0.00,0,1,0.3159,0.2644,0.9592,1.5649,-14.6260,47.4198,1.044,1,DEPLOYED,7
23.394,22.95,67.49,1004.31,0.000000,0.000000,0.00,0,1,0.3162,0.2522,0.9590,5.7939,-16.0153,52.6870,1.041,1,DEPLOYED,7
23.402,22.95,67.49,1004.31,0.000000,0.000000,0.00,0,1,0.3250,0.2334,0.9587,10.6641,-18.7328,59.5649,1.039,1,DEPLOYED,7
23.410,22.95,67.49,1004.31,0.000000,0.000000,0.00,0,1,0.3384,0.2244,0.9661,16.1908,-19.2443,63.6260,1.048,1,DEPLOYED,7
23.418,22.95,67.49,1004.31,0.000000,0.000000,0.00,0,1,0.3008,0.2439,0.9407,16.4122,-21.5038,69.4046,1.017,1,DEPLOYED,7
23.427,22.95,67.49,1004.31,0.000000,0.000000,0.00,0,1,0.2993,0.2632,0.9724,16.6260,-20.1527,72.3664,1.051,1,DEPLOYED,7
23.434,22.95,67.49,1004.29,0.000000,0.000000,0.00,0,1,0.2986,0.2434,0.9780,13.8550,-18.8702,72.0305,1.051,1,DEPLOYED,7
23.443,22.97,67.44,1004.32,0.000000,0.000000,0.00,0,1,0.2920,0.2478,0.9744,12.1679,-15.0305,70.9618,1.047,1,DEPLOYED,7
23.607,22.96,67.49,1004.31,0.000000,0.000000,0.00,0,1,0.3604,0.0651,0.9922,10.3130,-18.8626,64.9008,1.058,1,DEPLOYED,7
23.615,22.96,67.49,1004.31,0.000000,0.000000,0.00,0,1,0.3723,0.0544,1.0010,13.4427,-19.5878,67.3588,1.069,1,DEPLOYED,7
23.624,22.96,67.49,1004.31,0.000000,0.000000,0.00,0,1,0.3662,0.0534,0.9932,16.4809,-19.1908,70.0382,1.060,1,DEPLOYED,7
23.632,22.97,67.52,1004.34,0.000000,0.000000,0.00,0,1,0.3809,0.0485,0.9956,17.5420,-17.9695,72.6718,1.067,1,DEPLOYED,7
23.639,22.97,67.52,1004.34,0.000000,0.000000,0.00,0,1,0.3899,0.0288,0.9973,19.2824,-16.2672,75.9160,1.071,1,DEPLOYED,7
23.647,22.97,67.52,1004.34,0.000000,0.000000,0.00,0,1,0.3999,0.0168,1.0002,22.0916,-14.1985,79.9160,1.077,1,DEPLOYED,7
23.655,22.97,67.52,1004.34,0.000000,0.000000,0.00,0,1,0.4082,0.0017,0.9968,25.3206,-11.9160,84.5878,1.077,1,DEPLOYED,7
23.664,22.97,67.52,1004.34,0.000000,0.000000,0.00,0,1,0.4033,-0.0107,0.9963,30.0840,-9.4198,90.4427,1.075,1,DEPLOYED,7
23.672,22.97,67.52,1004.34,0.000000,0.000000,0.00,0,1,0.4031,-0.0205,1.0012,35.5649,-6.8702,96.4809,1.080,1,DEPLOYED,7
23.680,22.97,67.52,1004.34,0.000000,0.000000,0.00,0,1,0.3992,-0.0229,0.9937,41.0382,-3.4122,102.1985,1.071,1,DEPLOYED,7
23.688,22.97,67.52,1004.34,0.000000,0.000000,0.00,0,1,0.3823,-0.0295,0.9807,44.6107,-0.3817,106.3206,1.053,1,DEPLOYED,7
23.695,22.97,67.52,1004.34,0.000000,0.000000,0.00,0,1,0.3713,-0.0310,0.9685,46.3435,2.5496,108.3817,1.038,1,DEPLOYED,7
23.711,22.97,67.52,1004.34,0.000000,0.000000,0.00,0,1,0.3394,-0.0249,0.9622,44.4198,5.3664,106.2748,1.021,1,DEPLOYED,7
23.726,22.97,67.52,1004.31,0.000000,0.000000,0.00,0,1,0.3127,-0.0283,0.9773,39.5191,4.9618,99.7405,1.027,1,DEPLOYED,7
23.741,22.95,67.54,1004.26,0.000000,0.000000,0.00,0,1,0.3511,-0.1875,0.9670,6.6718,7.0076,44.1832,1.046,1,DEPLOYED,7
23.818,22.95,67.54,1004.26,0.000000,0.000000,0.00,0,1,0.2537,-0.2053,0.8823,29.6412,-16.4427,39.0229,0.941,1,DEPLOYED,7
23.826,22.98,67.55,1004.34,0.000000,0.000000,0.00,0,1,0.2490,-0.2671,0.8699,33.0687,-33.5954,31.9389,0.943,1,DEPLOYED,7
23.834,22.98,67.55,1004.34,0.000000,0.000000,0.00,0,1,0.2480,-0.2612,0.8794,26.9313,-46.5115,29.5267,0.950,1,DEPLOYED,7
23.842,22.98,67.55,1004.34,0.000000,0.000000,0.00,0,1,0.2593,-0.2390,0.8457,18.4504,-49.9924,27.3969,0.916,1,DEPLOYED,7
23.850,22.98,67.55,1004.34,0.000000,0.000000,0.00,0,1,0.4919,-0.3682,0.8870,-44.6183,100.9084,45.3282,1.079,1,DEPLOYED,7
23.927,22.96,67.55,1004.30,0.000000,0.000000,0.00,0,1,0.4746,-0.3281,0.8975,-43.4962,109.1374,48.3435,1.067,1,DEPLOYED,7
23.936,22.96,67.55,1004.30,0.000000,0.000000,0.00,0,1,0.4072,-0.3535,0.9609,-40.5725,110.0229,53.5725,1.102,1,DEPLOYED,7
23.944,22.96,67.55,1004.30,0.000000,0.000000,0.00,0,1,0.3364,-0.2327,0.9934,-37.3053,102.2824,62.5573,1.074,1,DEPLOYED,7
23.952,22.96,67.55,1004.30,0.000000,0.000000,0.00,0,1,0.2957,-0.2295,1.1306,-41.6260,99.1985,77.2748,1.191,1,DEPLOYED,7
23.960,22.96,67.55,1004.30,0.000000,0.000000,0.00,0,1,0.2627,-0.2156,1.0789,-28.3359,90.3588,76.1374,1.131,1,DEPLOYED,7
23.968,22.96,67.55,1004.30,0.000000,0.000000,0.00,0,1,0.2314,-0.2063,1.1260,-35.8244,81.5954,83.6107,1.168,1,DEPLOYED,7
23.976,22.96,67.55,1004.30,0.000000,0.000000,0.00,0,1,0.1846,-0.2480,1.0916,-38.9924,68.8855,87.3511,1.134,1,DEPLOYED,7
23.984,22.96,67.55,1004.30,0.000000,0.000000,0.00,0,1,0.2061,-0.2839,1.0283,-45.4427,57.7099,89.4122,1.087,1,DEPLOYED,7
23.992,22.96,67.55,1004.30,0.000000,0.000000,0.00,0,1,0.2927,-0.2788,0.9612,-41.4046,50.4885,94.0153,1.043,1,DEPLOYED,7
24.000,22.96,67.55,1004.30,0.000000,0.000000,0.00,0,1,0.2595,-0.2952,0.9468,-38.8779,45.6336,97.6183,1.025,1,DEPLOYED,7
24.008,22.96,67.55,1004.30,0.000000,0.000000,0.00,0,1,0.2712,-0.2510,0.9446,-44.5496,44.5191,99.6031,1.014,1,DEPLOYED,7
24.016,22.96,67.55,1004.30,0.000000,0.000000,0.00,0,1,0.2087,-0.2007,0.7512,-83.4809,11.3817,93.9695,0.805,1,DEPLOYED,7
24.032,22.95,67.54,1004.27,0.000000,0.000000,0.00,0,1,0.3853,-0.1296,0.6387,12.8321,-73.2595,-90.6489,0.757,1,DEPLOYED,7
24.109,22.95,67.54,1004.27,0.000000,0.000000,0.00,0,1,0.5090,-0.0520,0.5349,14.0382,-87.4122,-104.3664,0.740,1,DEPLOYED,7
24.117,22.95,67.59,1004.35,0.000000,0.000000,0.00,0,1,0.5352,-0.1008,0.4556,23.3588,-97.4504,-118.1069,0.710,1,DEPLOYED,7
24.125,22.99,67.59,1004.35,0.000000,0.000000,0.00,0,1,0.5293,-0.1501,0.4368,32.5573,-102.2137,-127.7786,0.702,1,DEPLOYED,7
24.133,22.99,67.59,1004.35,0.000000,0.000000,0.00,0,1,0.5117,-0.2549,0.5337,50.6718,-97.1527,-135.0916,0.782,1,DEPLOYED,7
24.141,22.99,67.59,1004.35,0.000000,0.000000,0.00,0,1,0.4749,-0.5447,0.8577,63.5954,-86.8931,-122.9084,1.121,1,DEPLOYED,7
24.149,22.99,67.59,1004.35,0.000000,0.000000,0.00,0,1,0.4812,-0.7283,0.9827,46.3969,-93.1985,-97.5878,1.314,1,DEPLOYED,7
24.157,22.99,67.59,1004.35,0.000000,0.000000,0.00,0,1,-0.0839,-0.7683,0.8792,29.6641,-91.1679,-83.0305,1.171,1,DEPLOYED,7
24.165,22.99,67.59,1004.35,0.000000,0.000000,0.00,0,1,0.4714,-0.7271,0.8303,25.4886,-78.7252,-70.7710,1.200,1,DEPLOYED,7
24.173,22.99,67.59,1004.35,0.000000,0.000000,0.00,0,1,0.4978,-0.6790,0.8643,26.2672,-65.6565,-55.1221,1.207,1,DEPLOYED,7
24.184,22.99,67.59,1004.35,0.000000,0.000000,0.00,0,1,0.5723,-0.6450,0.7458,46.5878,-49.7252,-30.1450,1.140,1,DEPLOYED,7
24.199,22.99,67.59,1004.35,0.000000,0.000000,0.00,0,1,0.3662,-0.2893,0.8462,64.2672,-24.1908,-13.3053,0.966,1,DEPLOYED,7
24.214,22.96,67.59,1004.33,0.000000,0.000000,0.00,0,1,0.0283,-0.0830,1.4480,10.8397,67.3206,6.2595,1.451,1,DEPLOYED,7
24.360,22.99,67.62,1004.35,0.000000,0.000000,0.00,0,1,0.2795,-0.1926,0.9504,44.0840,-10.0687,17.3664,1.009,1,DEPLOYED,7
24.436,22.99,67.63,1004.35,0.000000,0.000000,0.00,0,1,0.2097,-0.2898,1.0381,38.3817,-3.6565,22.8702,1.098,1,DEPLOYED,7
24.445,22.99,67.63,1004.35,0.000000,0.000000,0.00,0,1,0.1831,-0.3235,1.0320,35.7634,2.3969,29.2824,1.097,1,DEPLOYED,7
24.453,22.99,67.63,1004.35,0.000000,0.000000,0.00,0,1,0.1836,-0.3008,1.0325,38.8015,9.6336,34.5267,1.091,1,DEPLOYED,7
24.461,22.99,67.63,1004.35,0.000000,0.000000,0.00,0,1,0.2188,-0.2808,1.0564,48.6260,14.2977,37.9924,1.115,1,DEPLOYED,7
24.515,22.98,67.66,1004.34,0.000000,0.000000,0.00,0,1,0.3796,-0.1648,1.1797,33.9160,25.7481,24.4351,1.250,1,DEPLOYED,7
24.523,22.98,67.66,1004.34,0.000000,0.000000,0.00,0,1,0.0959,-0.2800,1.5544,35.1756,32.1679,27.2748,1.582,1,DEPLOYED,7
24.531,22.98,67.66,1004.34,0.000000,0.000000,0.00,0,1,0.1423,-0.3843,1.2104,36.1450,34.2214,31.5267,1.278,1,DEPLOYED,7
24.539,22.98,67.66,1004.34,0.000000,0.000000,0.00,0,1,0.1663,-0.3159,0.9207,30.3130,36.4809,35.2748,0.987,1,DEPLOYED,7
24.547,22.98,67.66,1004.34,0.000000,0.000000,0.00,0,1,0.1411,-0.1719,0.6143,23.6718,44.3206,37.4275,0.653,1,DEPLOYED,7
24.554,22.98,67.66,1004.34,0.000000,0.000000,0.00,0,1,0.0214,-0.3799,1.0193,23.6183,57.8550,38.2595,1.088,1,DEPLOYED,7
24.562,22.98,67.66,1004.34,0.000000,0.000000,0.00,0,1,-0.0046,-0.4299,1.1355,25.6565,59.8015,43.6641,1.214,1,DEPLOYED,7
24.570,22.98,67.66,1004.34,0.000000,0.000000,0.00,0,1,-0.0227,-0.5730,1.0061,24.0076,62.2977,52.1908,1.158,1,DEPLOYED,7
24.578,22.98,67.66,1004.34,0.000000,0.000000,0.00,0,1,-0.0095,-0.2324,1.0674,26.4733,56.1908,51.8931,1.092,1,DEPLOYED,7
24.586,22.98,67.66,1004.34,0.000000,0.000000,0.00,0,1,0.1243,-0.3438,0.9778,28.3282,60.0992,60.6107,1.044,1,DEPLOYED,7
24.595,22.98,67.66,1004.34,0.000000,0.000000,0.00,0,1,0.0976,-0.2834,1.0032,28.8168,60.8244,61.5267,1.047,1,DEPLOYED,7
24.603,22.98,67.70,1004.32,0.000000,0.000000,0.00,0,1,0.1030,-0.2764,1.0156,28.1145,63.5802,64.2901,1.058,1,DEPLOYED,7
24.618,22.97,67.70,1004.32,0.000000,0.000000,0.00,0,1,0.1658,-0.2891,0.9927,26.8015,65.8092,63.6412,1.047,1,DEPLOYED,7
24.633,22.97,67.70,1004.32,0.000000,0.000000,0.00,0,1,0.1262,-0.2207,1.0183,14.2824,62.6641,58.1832,1.050,1,DEPLOYED,7
24.649,22.97,67.70,1004.32,0.000000,0.000000,0.00,0,1,0.0842,-0.2136,1.0662,-1.3511,55.7557,35.9084,1.091,1,DEPLOYED,7
24.664,22.97,67.70,1004.32,0.000000,0.000000,0.00,0,1,0.0932,-0.2007,1.0659,-8.6870,52.3053,15.4427,1.089,1,DEPLOYED,7
24.677,22.97,67.70,1004.32,0.000000,0.000000,0.00,0,1,0.0986,-0.2483,1.0330,-10.5038,45.7939,6.0916,1.067,1,DEPLOYED,7
24.692,22.98,67.68,1004.31,0.000000,0.000000,0.00,0,1,-0.0190,-0.3655,0.8962,3.4885,25.3359,-41.7176,0.968,1,DEPLOYED,7
24.769,22.98,67.68,1004.31,0.000000,0.000000,0.00,0,1,0.0756,-0.3792,0.7444,-5.3511,31.4275,-34.0153,0.839,1,DEPLOYED,7
24.777,22.98,67.68,1004.31,0.000000,0.000000,0.00,0,1,0.0510,-0.3684,0.7654,-9.9160,36.0611,-24.3740,0.851,1,DEPLOYED,7
24.785,22.98,67.68,1004.31,0.000000,0.000000,0.00,0,1,0.0295,-0.3538,0.7117,-7.2595,37.2595,-11.0305,0.795,1,DEPLOYED,7
24.793,22.98,67.68,1004.31,0.000000,0.000000,0.00,0,1,-0.0527,-0.3286,0.8191,-3.6183,32.6260,2.2443,0.884,1,DEPLOYED,7
24.801,23.01,67.70,1004.36,0.000000,0.000000,0.00,0,1,-0.0656,-0.3140,0.8557,14.8931,28.3969,12.2672,0.914,1,DEPLOYED,7
24.810,23.01,67.70,1004.36,0.000000,0.000000,0.00,0,1,-0.0668,-0.3823,0.8696,30.7710,36.8855,15.6641,0.952,1,DEPLOYED,7
24.817,23.01,67.70,1004.36,0.000000,0.000000,0.00,0,1,-0.0908,-0.3645,0.9668,16.1832,39.1985,17.1374,1.037,1,DEPLOYED,7
24.826,23.01,67.70,1004.36,0.000000,0.000000,0.00,0,1,-0.0388,-0.2532,1.0449,11.7863,39.3359,12.8168,1.076,1,DEPLOYED,7
24.834,23.01,67.70,1004.36,0.000000,0.000000,0.00,0,1,-0.0651,-0.2302,1.0701,22.9160,38.6260,-1.0076,1.096,1,DEPLOYED,7
24.844,22.98,67.68,1004.32,0.000000,0.000000,0.00,0,1,-0.0925,-0.3674,1.0159,-1.4275,30.2137,-29.7786,1.084,1,DEPLOYED,7
24.922,22.98,67.68,1004.32,0.000000,0.000000,0.00,0,1,-0.1174,-0.3513,1.0386,3.2290,28.7634,-25.7557,1.103,1,DEPLOYED,7
24.930,22.98,67.68,1004.32,0.000000,0.000000,0.00,0,1,-0.1582,-0.3267,1.0686,7.2901,30.0611,-22.8092,1.129,1,DEPLOYED,7
24.938,22.98,67.68,1004.32,0.000000,0.000000,0.00,0,1,-0.1382,-0.3606,1.0886,11.5267,30.3817,-21.8092,1.155,1,DEPLOYED,7
24.946,22.98,67.68,1004.32,0.000000,0.000000,0.00,0,1,-0.1172,-0.4136,1.0310,14.1374,28.9313,-17.4809,1.117,1,DEPLOYED,7
24.954,22.98,67.68,1004.32,0.000000,0.000000,0.00,0,1,-0.1169,-0.4075,0.9785,12.9847,26.9237,-9.8550,1.066,1,DEPLOYED,7
24.962,22.98,67.68,1004.32,0.000000,0.000000,0.00,0,1,-0.0957,-0.3674,0.9304,12.9847,27.4046,-3.0534,1.005,1,DEPLOYED,7
24.970,22.98,67.68,1004.32,0.000000,0.000000,0.00,0,1,-0.0961,-0.3262,0.9329,12.7557,28.3359,1.1756,0.993,1,DEPLOYED,7
24.978,22.98,67.68,1004.32,0.000000,0.000000,0.00,0,1,-0.0908,-0.2876,0.9189,11.2443,28.8397,3.5496,0.967,1,DEPLOYED,7
24.986,22.98,67.68,1004.32,0.000000,0.000000,0.00,0,1,-0.1228,-0.2488,0.8916,11.3817,28.6870,5.1908,0.934,1,DEPLOYED,7
24.994,23.00,67.67,1004.32,0.000000,0.000000,0.00,0,1,-0.0922,-0.2634,0.8743,12.9466,31.4046,6.4427,0.918,1,DEPLOYED,7
25.010,23.00,67.67,1004.32,0.000000,0.000000,0.00,0,1,-0.0983,-0.2275,0.9075,8.4580,35.4046,9.5573,0.941,1,DEPLOYED,7
25.025,23.00,67.67,1004.32,0.000000,0.000000,0.00,0,1,-0.0615,-0.2166,0.9412,6.1145,38.0534,1.3206,0.968,1,DEPLOYED,7
25.040,23.00,67.72,1004.32,0.000000,0.000000,0.00,0,1,-0.0925,-0.3191,0.9319,-9.5191,24.5191,1.5496,0.989,1,DEPLOYED,7
25.117,22.99,67.72,1004.32,0.000000,0.000000,0.00,0,1,-0.0803,-0.2886,0.9155,-11.9847,24.1221,4.3359,0.963,1,DEPLOYED,7
25.125,22.99,67.72,1004.32,0.000000,0.000000,0.00,0,1,-0.0769,-0.2712,0.9055,-14.2366,26.3359,5.1679,0.948,1,DEPLOYED,7
25.134,22.99,67.72,1004.32,0.000000,0.000000,0.00,0,1,-0.0644,-0.2744,0.9004,-22.7557,27.2366,5.4733,0.943,1,DEPLOYED,7
25.142,22.99,67.72,1004.32,0.000000,0.000000,0.00,0,1,-0.0664,-0.2954,0.9260,-30.0076,25.7634,4.4122,0.974,1,DEPLOYED,7
25.149,22.99,67.72,1004.32,0.000000,0.000000,0.00,0,1,-0.1040,-0.3623,0.9209,-32.6870,27.4580,3.3664,0.995,1,DEPLOYED,7
25.157,22.99,67.72,1004.32,0.000000,0.000000,0.00,0,1,-0.0937,-0.3486,0.9490,-24.7634,23.1450,5.4427,1.015,1,DEPLOYED,7
25.165,22.99,67.72,1004.32,0.000000,0.000000,0.00,0,1,-0.1479,-0.3335,0.9475,-6.2366,21.6718,7.1527,1.015,1,DEPLOYED,7
25.174,23.00,67.79,1004.36,0.000000,0.000000,0.00,0,1,-0.1196,-0.2805,0.9570,-27.0763,15.8168,-0.4733,1.004,1,DEPLOYED,7
25.320,23.01,67.83,1004.37,0.000000,0.000000,0.00,0,1,-0.2004,-0.3213,0.9063,-24.6412,18.0382,-5.2443,0.982,1,DEPLOYED,8
